[{"success":true,"trial_type":"fullscreen","trial_index":0,"time_elapsed":1770,"internal_node_id":"0.0-0.0","screen_height":616,"screen_width":1280,"browser":"chrome","browser_version":"103.0.0","mobile":false,"os":"Windows 10","vsync_rate":55.61,"participant_id":"S00"},{"width":1280,"height":616,"webaudio":true,"browser":"chrome","browser_version":"103.0.0","mobile":false,"os":"Windows 10","fullscreen":true,"vsync_rate":55.61,"webcam":true,"microphone":true,"screen":"browser_info","trial_type":"browser-check","trial_index":1,"time_elapsed":4811,"internal_node_id":"0.0-1.0","screen_height":616,"screen_width":1280,"participant_id":"S00"},{"rt":2832,"response":{"Participant_ID":"S00"},"screen":"participant_info","version":"1.0","date":"13/07/2022","time":"10:57:22","trial_type":"survey-text","trial_index":2,"time_elapsed":7672,"internal_node_id":"0.0-2.0","screen_height":616,"screen_width":1280,"browser":"chrome","browser_version":"103.0.0","mobile":false,"os":"Windows 10","vsync_rate":55.61,"participant_id":"S00"},{"rt":2297,"stimulus":"<p><b>The Illusion Game</b></p><p>In this reaction-time game, you will need to be <b>as fast as possible</b> and make correct responses by resisting different visual illusions.</p><p>Sometimes, it's very hard and you want to rely on your intuition and gut feeling to answer fast without making errors.</p><p>Don't worry, we will show you examples of each illusion before each block. Each illusion block will be repeated two times (so that you have an opportunity to improve your score!), but the order of the blocks is random.</p><p>Remember, your goal is to be as <b>fast</b> and <b>accurate</b> as possible. Good luck!</p>","response":0,"screen":"general_instructions","trial_type":"html-button-response","trial_index":3,"time_elapsed":9976,"internal_node_id":"0.0-3.0","screen_height":616,"screen_width":1280,"browser":"chrome","browser_version":"103.0.0","mobile":false,"os":"Windows 10","vsync_rate":55.61,"participant_id":"S00"},{"success":true,"timeout":false,"failed_images":[],"failed_audio":[],"failed_video":[],"trial_type":"preload","trial_index":4,"time_elapsed":9983,"internal_node_id":"0.0-4.0-0.0","screen_height":616,"screen_width":1280,"browser":"chrome","browser_version":"103.0.0","mobile":false,"os":"Windows 10","vsync_rate":55.61,"participant_id":"S00"},{"rt":13774,"stimulus":"<p><b>Part 1</b></p><p>In this part, two horizontal red lines will appear one above the other.</p><p>Your task is to select which <b>line has a longer length</b> as fast as you can, without making errors.</p><p>Don't get distracted by the surrounding black lines!</p><p>Press <b>the UP or the DOWN arrow</b> to indicate where is the longest <b>red line.</b></p><div style='float: center'><img src='utils/stimuli_demo/Ponzo_Demo.png' height='300'></img><p><img src='utils/answer/answer_updown_keyboard.PNG' height='150'></img></p><p class='small'>In this example, the correct answer is the <b>UP arrow</b>.</p></div><p>Are you ready? <b>Press ENTER to start</b></p>","response":"enter","trial_type":"html-keyboard-response","trial_index":5,"time_elapsed":23762,"internal_node_id":"0.0-4.0-1.0","screen_height":616,"screen_width":1280,"browser":"chrome","browser_version":"103.0.0","mobile":false,"os":"Windows 10","vsync_rate":55.61,"participant_id":"S00"},{"rt":null,"stimulus":"<div style=\"font-size:60px;\">+</div>","response":null,"screen":"fixation","trial_type":"html-keyboard-response","trial_index":6,"time_elapsed":24769,"internal_node_id":"0.0-4.0-2.0-0.0","screen_height":616,"screen_width":1280,"browser":"chrome","browser_version":"103.0.0","mobile":false,"os":"Windows 10","vsync_rate":55.61,"participant_id":"S00","trial_duration":483},{"rt":4236,"stimulus":"stimuli/Ponzo_str-15.0_diff0.4.png","response":"arrowup","screen":"Trial","block":"Ponzo","correct_response":"arrowup","trial_type":"image-keyboard-response","trial_index":7,"time_elapsed":29009,"internal_node_id":"0.0-4.0-2.0-1.0","screen_height":616,"screen_width":1280,"browser":"chrome","browser_version":"103.0.0","mobile":false,"os":"Windows 10","vsync_rate":55.61,"participant_id":"S00","prestimulus_duration":1007,"correct":true,"type":"Ponzo","illusion_strength":-15,"illusion_difference":0.4,"block_number":1,"trial_number":1},{"rt":null,"stimulus":"<div style=\"font-size:60px;\">+</div>","response":null,"screen":"fixation","trial_type":"html-keyboard-response","trial_index":8,"time_elapsed":29856,"internal_node_id":"0.0-4.0-2.0-0.1","screen_height":616,"screen_width":1280,"browser":"chrome","browser_version":"103.0.0","mobile":false,"os":"Windows 10","vsync_rate":55.61,"participant_id":"S00","trial_duration":837},{"rt":1135,"stimulus":"stimuli/Ponzo_str5.0_diff0.04.png","response":"arrowdown","screen":"Trial","block":"Ponzo","correct_response":"arrowup","trial_type":"image-keyboard-response","trial_index":9,"time_elapsed":30991,"internal_node_id":"0.0-4.0-2.0-1.1","screen_height":616,"screen_width":1280,"browser":"chrome","browser_version":"103.0.0","mobile":false,"os":"Windows 10","vsync_rate":55.61,"participant_id":"S00","prestimulus_duration":847,"correct":false,"type":"Ponzo","illusion_strength":5,"illusion_difference":0.04,"block_number":1,"trial_number":2},{"rt":null,"stimulus":"<div style=\"font-size:60px;\">+</div>","response":null,"screen":"fixation","trial_type":"html-keyboard-response","trial_index":10,"time_elapsed":31634,"internal_node_id":"0.0-4.0-2.0-0.2","screen_height":616,"screen_width":1280,"browser":"chrome","browser_version":"103.0.0","mobile":false,"os":"Windows 10","vsync_rate":55.61,"participant_id":"S00","trial_duration":636},{"rt":802,"stimulus":"stimuli/Ponzo_str-25.0_diff0.04.png","response":"arrowup","screen":"Trial","block":"Ponzo","correct_response":"arrowup","trial_type":"image-keyboard-response","trial_index":11,"time_elapsed":32437,"internal_node_id":"0.0-4.0-2.0-1.2","screen_height":616,"screen_width":1280,"browser":"chrome","browser_version":"103.0.0","mobile":false,"os":"Windows 10","vsync_rate":55.61,"participant_id":"S00","prestimulus_duration":643,"correct":true,"type":"Ponzo","illusion_strength":-25,"illusion_difference":0.04,"block_number":1,"trial_number":3},{"rt":null,"stimulus":"<div style=\"font-size:60px;\">+</div>","response":null,"screen":"fixation","trial_type":"html-keyboard-response","trial_index":12,"time_elapsed":33181,"internal_node_id":"0.0-4.0-2.0-0.3","screen_height":616,"screen_width":1280,"browser":"chrome","browser_version":"103.0.0","mobile":false,"os":"Windows 10","vsync_rate":55.61,"participant_id":"S00","trial_duration":740},{"rt":1108,"stimulus":"stimuli/Ponzo_str-5.0_diff0.04.png","response":"arrowup","screen":"Trial","block":"Ponzo","correct_response":"arrowup","trial_type":"image-keyboard-response","trial_index":13,"time_elapsed":34290,"internal_node_id":"0.0-4.0-2.0-1.3","screen_height":616,"screen_width":1280,"browser":"chrome","browser_version":"103.0.0","mobile":false,"os":"Windows 10","vsync_rate":55.61,"participant_id":"S00","prestimulus_duration":744,"correct":true,"type":"Ponzo","illusion_strength":-5,"illusion_difference":0.04,"block_number":1,"trial_number":4},{"rt":null,"stimulus":"<div style=\"font-size:60px;\">+</div>","response":null,"screen":"fixation","trial_type":"html-keyboard-response","trial_index":14,"time_elapsed":34585,"internal_node_id":"0.0-4.0-2.0-0.4","screen_height":616,"screen_width":1280,"browser":"chrome","browser_version":"103.0.0","mobile":false,"os":"Windows 10","vsync_rate":55.61,"participant_id":"S00","trial_duration":284},{"rt":1575,"stimulus":"stimuli/Ponzo_str15.0_diff-0.18.png","response":"arrowdown","screen":"Trial","block":"Ponzo","correct_response":"arrowdown","trial_type":"image-keyboard-response","trial_index":15,"time_elapsed":36161,"internal_node_id":"0.0-4.0-2.0-1.4","screen_height":616,"screen_width":1280,"browser":"chrome","browser_version":"103.0.0","mobile":false,"os":"Windows 10","vsync_rate":55.61,"participant_id":"S00","prestimulus_duration":295,"correct":true,"type":"Ponzo","illusion_strength":15,"illusion_difference":-0.17500000000000002,"block_number":1,"trial_number":5},{"rt":null,"stimulus":"<div style=\"font-size:60px;\">+</div>","response":null,"screen":"fixation","trial_type":"html-keyboard-response","trial_index":16,"time_elapsed":36986,"internal_node_id":"0.0-4.0-2.0-0.5","screen_height":616,"screen_width":1280,"browser":"chrome","browser_version":"103.0.0","mobile":false,"os":"Windows 10","vsync_rate":55.61,"participant_id":"S00","trial_duration":814},{"rt":1907,"stimulus":"stimuli/Ponzo_str-15.0_diff0.18.png","response":"arrowup","screen":"Trial","block":"Ponzo","correct_response":"arrowup","trial_type":"image-keyboard-response","trial_index":17,"time_elapsed":38895,"internal_node_id":"0.0-4.0-2.0-1.5","screen_height":616,"screen_width":1280,"browser":"chrome","browser_version":"103.0.0","mobile":false,"os":"Windows 10","vsync_rate":55.61,"participant_id":"S00","prestimulus_duration":825,"correct":true,"type":"Ponzo","illusion_strength":-15,"illusion_difference":0.17500000000000002,"block_number":1,"trial_number":6},{"rt":null,"stimulus":"<div style=\"font-size:60px;\">+</div>","response":null,"screen":"fixation","trial_type":"html-keyboard-response","trial_index":18,"time_elapsed":39339,"internal_node_id":"0.0-4.0-2.0-0.6","screen_height":616,"screen_width":1280,"browser":"chrome","browser_version":"103.0.0","mobile":false,"os":"Windows 10","vsync_rate":55.61,"participant_id":"S00","trial_duration":430},{"rt":1951,"stimulus":"stimuli/Ponzo_str15.0_diff0.04.png","response":"arrowdown","screen":"Trial","block":"Ponzo","correct_response":"arrowup","trial_type":"image-keyboard-response","trial_index":19,"time_elapsed":41292,"internal_node_id":"0.0-4.0-2.0-1.6","screen_height":616,"screen_width":1280,"browser":"chrome","browser_version":"103.0.0","mobile":false,"os":"Windows 10","vsync_rate":55.61,"participant_id":"S00","prestimulus_duration":444,"correct":false,"type":"Ponzo","illusion_strength":15,"illusion_difference":0.04,"block_number":1,"trial_number":7},{"rt":null,"stimulus":"<div style=\"font-size:60px;\">+</div>","response":null,"screen":"fixation","trial_type":"html-keyboard-response","trial_index":20,"time_elapsed":41612,"internal_node_id":"0.0-4.0-2.0-0.7","screen_height":616,"screen_width":1280,"browser":"chrome","browser_version":"103.0.0","mobile":false,"os":"Windows 10","vsync_rate":55.61,"participant_id":"S00","trial_duration":313},{"rt":1493,"stimulus":"stimuli/Ponzo_str-15.0_diff-0.04.png","response":"arrowdown","screen":"Trial","block":"Ponzo","correct_response":"arrowdown","trial_type":"image-keyboard-response","trial_index":21,"time_elapsed":43106,"internal_node_id":"0.0-4.0-2.0-1.7","screen_height":616,"screen_width":1280,"browser":"chrome","browser_version":"103.0.0","mobile":false,"os":"Windows 10","vsync_rate":55.61,"participant_id":"S00","prestimulus_duration":320,"correct":true,"type":"Ponzo","illusion_strength":-15,"illusion_difference":-0.04,"block_number":1,"trial_number":8},{"rt":null,"stimulus":"<div style=\"font-size:60px;\">+</div>","response":null,"screen":"fixation","trial_type":"html-keyboard-response","trial_index":22,"time_elapsed":43402,"internal_node_id":"0.0-4.0-2.0-0.8","screen_height":616,"screen_width":1280,"browser":"chrome","browser_version":"103.0.0","mobile":false,"os":"Windows 10","vsync_rate":55.61,"participant_id":"S00","trial_duration":282},{"rt":1209,"stimulus":"stimuli/Ponzo_str-25.0_diff0.18.png","response":"arrowup","screen":"Trial","block":"Ponzo","correct_response":"arrowup","trial_type":"image-keyboard-response","trial_index":23,"time_elapsed":44612,"internal_node_id":"0.0-4.0-2.0-1.8","screen_height":616,"screen_width":1280,"browser":"chrome","browser_version":"103.0.0","mobile":false,"os":"Windows 10","vsync_rate":55.61,"participant_id":"S00","prestimulus_duration":296,"correct":true,"type":"Ponzo","illusion_strength":-25,"illusion_difference":0.17500000000000002,"block_number":1,"trial_number":9},{"rt":null,"stimulus":"<div style=\"font-size:60px;\">+</div>","response":null,"screen":"fixation","trial_type":"html-keyboard-response","trial_index":24,"time_elapsed":45394,"internal_node_id":"0.0-4.0-2.0-0.9","screen_height":616,"screen_width":1280,"browser":"chrome","browser_version":"103.0.0","mobile":false,"os":"Windows 10","vsync_rate":55.61,"participant_id":"S00","trial_duration":769},{"rt":1362,"stimulus":"stimuli/Ponzo_str5.0_diff-0.4.png","response":"arrowdown","screen":"Trial","block":"Ponzo","correct_response":"arrowdown","trial_type":"image-keyboard-response","trial_index":25,"time_elapsed":46758,"internal_node_id":"0.0-4.0-2.0-1.9","screen_height":616,"screen_width":1280,"browser":"chrome","browser_version":"103.0.0","mobile":false,"os":"Windows 10","vsync_rate":55.61,"participant_id":"S00","prestimulus_duration":782,"correct":true,"type":"Ponzo","illusion_strength":5,"illusion_difference":-0.4,"block_number":1,"trial_number":10},{"rt":null,"stimulus":"<div style=\"font-size:60px;\">+</div>","response":null,"screen":"fixation","trial_type":"html-keyboard-response","trial_index":26,"time_elapsed":47098,"internal_node_id":"0.0-4.0-2.0-0.10","screen_height":616,"screen_width":1280,"browser":"chrome","browser_version":"103.0.0","mobile":false,"os":"Windows 10","vsync_rate":55.61,"participant_id":"S00","trial_duration":322},{"rt":2173,"stimulus":"stimuli/Ponzo_str-5.0_diff0.18.png","response":"arrowdown","screen":"Trial","block":"Ponzo","correct_response":"arrowup","trial_type":"image-keyboard-response","trial_index":27,"time_elapsed":49272,"internal_node_id":"0.0-4.0-2.0-1.10","screen_height":616,"screen_width":1280,"browser":"chrome","browser_version":"103.0.0","mobile":false,"os":"Windows 10","vsync_rate":55.61,"participant_id":"S00","prestimulus_duration":340,"correct":false,"type":"Ponzo","illusion_strength":-5,"illusion_difference":0.17500000000000002,"block_number":1,"trial_number":11},{"rt":null,"stimulus":"<div style=\"font-size:60px;\">+</div>","response":null,"screen":"fixation","trial_type":"html-keyboard-response","trial_index":28,"time_elapsed":49567,"internal_node_id":"0.0-4.0-2.0-0.11","screen_height":616,"screen_width":1280,"browser":"chrome","browser_version":"103.0.0","mobile":false,"os":"Windows 10","vsync_rate":55.61,"participant_id":"S00","trial_duration":284},{"rt":1111,"stimulus":"stimuli/Ponzo_str-25.0_diff-0.04.png","response":"arrowdown","screen":"Trial","block":"Ponzo","correct_response":"arrowdown","trial_type":"image-keyboard-response","trial_index":29,"time_elapsed":50680,"internal_node_id":"0.0-4.0-2.0-1.11","screen_height":616,"screen_width":1280,"browser":"chrome","browser_version":"103.0.0","mobile":false,"os":"Windows 10","vsync_rate":55.61,"participant_id":"S00","prestimulus_duration":295,"correct":true,"type":"Ponzo","illusion_strength":-25,"illusion_difference":-0.04,"block_number":1,"trial_number":12},{"rt":null,"stimulus":"<div style=\"font-size:60px;\">+</div>","response":null,"screen":"fixation","trial_type":"html-keyboard-response","trial_index":30,"time_elapsed":51654,"internal_node_id":"0.0-4.0-2.0-0.12","screen_height":616,"screen_width":1280,"browser":"chrome","browser_version":"103.0.0","mobile":false,"os":"Windows 10","vsync_rate":55.61,"participant_id":"S00","trial_duration":968},{"rt":825,"stimulus":"stimuli/Ponzo_str-5.0_diff-0.4.png","response":"arrowup","screen":"Trial","block":"Ponzo","correct_response":"arrowdown","trial_type":"image-keyboard-response","trial_index":31,"time_elapsed":52479,"internal_node_id":"0.0-4.0-2.0-1.12","screen_height":616,"screen_width":1280,"browser":"chrome","browser_version":"103.0.0","mobile":false,"os":"Windows 10","vsync_rate":55.61,"participant_id":"S00","prestimulus_duration":974,"correct":false,"type":"Ponzo","illusion_strength":-5,"illusion_difference":-0.4,"block_number":1,"trial_number":13},{"rt":null,"stimulus":"<div style=\"font-size:60px;\">+</div>","response":null,"screen":"fixation","trial_type":"html-keyboard-response","trial_index":32,"time_elapsed":53155,"internal_node_id":"0.0-4.0-2.0-0.13","screen_height":616,"screen_width":1280,"browser":"chrome","browser_version":"103.0.0","mobile":false,"os":"Windows 10","vsync_rate":55.61,"participant_id":"S00","trial_duration":662},{"rt":840,"stimulus":"stimuli/Ponzo_str15.0_diff0.4.png","response":"arrowup","screen":"Trial","block":"Ponzo","correct_response":"arrowup","trial_type":"image-keyboard-response","trial_index":33,"time_elapsed":53996,"internal_node_id":"0.0-4.0-2.0-1.13","screen_height":616,"screen_width":1280,"browser":"chrome","browser_version":"103.0.0","mobile":false,"os":"Windows 10","vsync_rate":55.61,"participant_id":"S00","prestimulus_duration":676,"correct":true,"type":"Ponzo","illusion_strength":15,"illusion_difference":0.4,"block_number":1,"trial_number":14},{"rt":null,"stimulus":"<div style=\"font-size:60px;\">+</div>","response":null,"screen":"fixation","trial_type":"html-keyboard-response","trial_index":34,"time_elapsed":54961,"internal_node_id":"0.0-4.0-2.0-0.14","screen_height":616,"screen_width":1280,"browser":"chrome","browser_version":"103.0.0","mobile":false,"os":"Windows 10","vsync_rate":55.61,"participant_id":"S00","trial_duration":958},{"rt":908,"stimulus":"stimuli/Ponzo_str-25.0_diff-0.18.png","response":"arrowdown","screen":"Trial","block":"Ponzo","correct_response":"arrowdown","trial_type":"image-keyboard-response","trial_index":35,"time_elapsed":55870,"internal_node_id":"0.0-4.0-2.0-1.14","screen_height":616,"screen_width":1280,"browser":"chrome","browser_version":"103.0.0","mobile":false,"os":"Windows 10","vsync_rate":55.61,"participant_id":"S00","prestimulus_duration":965,"correct":true,"type":"Ponzo","illusion_strength":-25,"illusion_difference":-0.17500000000000002,"block_number":1,"trial_number":15},{"rt":null,"stimulus":"<div style=\"font-size:60px;\">+</div>","response":null,"screen":"fixation","trial_type":"html-keyboard-response","trial_index":36,"time_elapsed":56726,"internal_node_id":"0.0-4.0-2.0-0.15","screen_height":616,"screen_width":1280,"browser":"chrome","browser_version":"103.0.0","mobile":false,"os":"Windows 10","vsync_rate":55.61,"participant_id":"S00","trial_duration":850},{"rt":928,"stimulus":"stimuli/Ponzo_str15.0_diff-0.4.png","response":"arrowdown","screen":"Trial","block":"Ponzo","correct_response":"arrowdown","trial_type":"image-keyboard-response","trial_index":37,"time_elapsed":57656,"internal_node_id":"0.0-4.0-2.0-1.15","screen_height":616,"screen_width":1280,"browser":"chrome","browser_version":"103.0.0","mobile":false,"os":"Windows 10","vsync_rate":55.61,"participant_id":"S00","prestimulus_duration":856,"correct":true,"type":"Ponzo","illusion_strength":15,"illusion_difference":-0.4,"block_number":1,"trial_number":16},{"rt":null,"stimulus":"<div style=\"font-size:60px;\">+</div>","response":null,"screen":"fixation","trial_type":"html-keyboard-response","trial_index":38,"time_elapsed":58218,"internal_node_id":"0.0-4.0-2.0-0.16","screen_height":616,"screen_width":1280,"browser":"chrome","browser_version":"103.0.0","mobile":false,"os":"Windows 10","vsync_rate":55.61,"participant_id":"S00","trial_duration":557},{"rt":908,"stimulus":"stimuli/Ponzo_str25.0_diff-0.04.png","response":"arrowup","screen":"Trial","block":"Ponzo","correct_response":"arrowdown","trial_type":"image-keyboard-response","trial_index":39,"time_elapsed":59128,"internal_node_id":"0.0-4.0-2.0-1.16","screen_height":616,"screen_width":1280,"browser":"chrome","browser_version":"103.0.0","mobile":false,"os":"Windows 10","vsync_rate":55.61,"participant_id":"S00","prestimulus_duration":562,"correct":false,"type":"Ponzo","illusion_strength":25,"illusion_difference":-0.04,"block_number":1,"trial_number":17},{"rt":null,"stimulus":"<div style=\"font-size:60px;\">+</div>","response":null,"screen":"fixation","trial_type":"html-keyboard-response","trial_index":40,"time_elapsed":60003,"internal_node_id":"0.0-4.0-2.0-0.17","screen_height":616,"screen_width":1280,"browser":"chrome","browser_version":"103.0.0","mobile":false,"os":"Windows 10","vsync_rate":55.61,"participant_id":"S00","trial_duration":863},{"rt":1085,"stimulus":"stimuli/Ponzo_str-15.0_diff0.04.png","response":"arrowdown","screen":"Trial","block":"Ponzo","correct_response":"arrowup","trial_type":"image-keyboard-response","trial_index":41,"time_elapsed":61089,"internal_node_id":"0.0-4.0-2.0-1.17","screen_height":616,"screen_width":1280,"browser":"chrome","browser_version":"103.0.0","mobile":false,"os":"Windows 10","vsync_rate":55.61,"participant_id":"S00","prestimulus_duration":875,"correct":false,"type":"Ponzo","illusion_strength":-15,"illusion_difference":0.04,"block_number":1,"trial_number":18},{"rt":null,"stimulus":"<div style=\"font-size:60px;\">+</div>","response":null,"screen":"fixation","trial_type":"html-keyboard-response","trial_index":42,"time_elapsed":61906,"internal_node_id":"0.0-4.0-2.0-0.18","screen_height":616,"screen_width":1280,"browser":"chrome","browser_version":"103.0.0","mobile":false,"os":"Windows 10","vsync_rate":55.61,"participant_id":"S00","trial_duration":808},{"rt":787,"stimulus":"stimuli/Ponzo_str-5.0_diff0.4.png","response":"arrowup","screen":"Trial","block":"Ponzo","correct_response":"arrowup","trial_type":"image-keyboard-response","trial_index":43,"time_elapsed":62695,"internal_node_id":"0.0-4.0-2.0-1.18","screen_height":616,"screen_width":1280,"browser":"chrome","browser_version":"103.0.0","mobile":false,"os":"Windows 10","vsync_rate":55.61,"participant_id":"S00","prestimulus_duration":817,"correct":true,"type":"Ponzo","illusion_strength":-5,"illusion_difference":0.4,"block_number":1,"trial_number":19},{"rt":null,"stimulus":"<div style=\"font-size:60px;\">+</div>","response":null,"screen":"fixation","trial_type":"html-keyboard-response","trial_index":44,"time_elapsed":63155,"internal_node_id":"0.0-4.0-2.0-0.19","screen_height":616,"screen_width":1280,"browser":"chrome","browser_version":"103.0.0","mobile":false,"os":"Windows 10","vsync_rate":55.61,"participant_id":"S00","trial_duration":445},{"rt":1043,"stimulus":"stimuli/Ponzo_str15.0_diff0.18.png","response":"arrowdown","screen":"Trial","block":"Ponzo","correct_response":"arrowup","trial_type":"image-keyboard-response","trial_index":45,"time_elapsed":64199,"internal_node_id":"0.0-4.0-2.0-1.19","screen_height":616,"screen_width":1280,"browser":"chrome","browser_version":"103.0.0","mobile":false,"os":"Windows 10","vsync_rate":55.61,"participant_id":"S00","prestimulus_duration":460,"correct":false,"type":"Ponzo","illusion_strength":15,"illusion_difference":0.17500000000000002,"block_number":1,"trial_number":20},{"rt":null,"stimulus":"<div style=\"font-size:60px;\">+</div>","response":null,"screen":"fixation","trial_type":"html-keyboard-response","trial_index":46,"time_elapsed":64633,"internal_node_id":"0.0-4.0-2.0-0.20","screen_height":616,"screen_width":1280,"browser":"chrome","browser_version":"103.0.0","mobile":false,"os":"Windows 10","vsync_rate":55.61,"participant_id":"S00","trial_duration":420},{"rt":826,"stimulus":"stimuli/Ponzo_str5.0_diff0.18.png","response":"arrowdown","screen":"Trial","block":"Ponzo","correct_response":"arrowup","trial_type":"image-keyboard-response","trial_index":47,"time_elapsed":65459,"internal_node_id":"0.0-4.0-2.0-1.20","screen_height":616,"screen_width":1280,"browser":"chrome","browser_version":"103.0.0","mobile":false,"os":"Windows 10","vsync_rate":55.61,"participant_id":"S00","prestimulus_duration":434,"correct":false,"type":"Ponzo","illusion_strength":5,"illusion_difference":0.17500000000000002,"block_number":1,"trial_number":21},{"rt":null,"stimulus":"<div style=\"font-size:60px;\">+</div>","response":null,"screen":"fixation","trial_type":"html-keyboard-response","trial_index":48,"time_elapsed":66095,"internal_node_id":"0.0-4.0-2.0-0.21","screen_height":616,"screen_width":1280,"browser":"chrome","browser_version":"103.0.0","mobile":false,"os":"Windows 10","vsync_rate":55.61,"participant_id":"S00","trial_duration":623},{"rt":998,"stimulus":"stimuli/Ponzo_str15.0_diff-0.04.png","response":"arrowup","screen":"Trial","block":"Ponzo","correct_response":"arrowdown","trial_type":"image-keyboard-response","trial_index":49,"time_elapsed":67094,"internal_node_id":"0.0-4.0-2.0-1.21","screen_height":616,"screen_width":1280,"browser":"chrome","browser_version":"103.0.0","mobile":false,"os":"Windows 10","vsync_rate":55.61,"participant_id":"S00","prestimulus_duration":636,"correct":false,"type":"Ponzo","illusion_strength":15,"illusion_difference":-0.04,"block_number":1,"trial_number":22},{"rt":null,"stimulus":"<div style=\"font-size:60px;\">+</div>","response":null,"screen":"fixation","trial_type":"html-keyboard-response","trial_index":50,"time_elapsed":67686,"internal_node_id":"0.0-4.0-2.0-0.22","screen_height":616,"screen_width":1280,"browser":"chrome","browser_version":"103.0.0","mobile":false,"os":"Windows 10","vsync_rate":55.61,"participant_id":"S00","trial_duration":582},{"rt":948,"stimulus":"stimuli/Ponzo_str5.0_diff-0.18.png","response":"arrowdown","screen":"Trial","block":"Ponzo","correct_response":"arrowdown","trial_type":"image-keyboard-response","trial_index":51,"time_elapsed":68636,"internal_node_id":"0.0-4.0-2.0-1.22","screen_height":616,"screen_width":1280,"browser":"chrome","browser_version":"103.0.0","mobile":false,"os":"Windows 10","vsync_rate":55.61,"participant_id":"S00","prestimulus_duration":592,"correct":true,"type":"Ponzo","illusion_strength":5,"illusion_difference":-0.17500000000000002,"block_number":1,"trial_number":23},{"rt":null,"stimulus":"<div style=\"font-size:60px;\">+</div>","response":null,"screen":"fixation","trial_type":"html-keyboard-response","trial_index":52,"time_elapsed":69639,"internal_node_id":"0.0-4.0-2.0-0.23","screen_height":616,"screen_width":1280,"browser":"chrome","browser_version":"103.0.0","mobile":false,"os":"Windows 10","vsync_rate":55.61,"participant_id":"S00","trial_duration":997},{"rt":806,"stimulus":"stimuli/Ponzo_str-25.0_diff-0.4.png","response":"arrowdown","screen":"Trial","block":"Ponzo","correct_response":"arrowdown","trial_type":"image-keyboard-response","trial_index":53,"time_elapsed":70446,"internal_node_id":"0.0-4.0-2.0-1.23","screen_height":616,"screen_width":1280,"browser":"chrome","browser_version":"103.0.0","mobile":false,"os":"Windows 10","vsync_rate":55.61,"participant_id":"S00","prestimulus_duration":1003,"correct":true,"type":"Ponzo","illusion_strength":-25,"illusion_difference":-0.4,"block_number":1,"trial_number":24},{"rt":null,"stimulus":"<div style=\"font-size:60px;\">+</div>","response":null,"screen":"fixation","trial_type":"html-keyboard-response","trial_index":54,"time_elapsed":70868,"internal_node_id":"0.0-4.0-2.0-0.24","screen_height":616,"screen_width":1280,"browser":"chrome","browser_version":"103.0.0","mobile":false,"os":"Windows 10","vsync_rate":55.61,"participant_id":"S00","trial_duration":415},{"rt":745,"stimulus":"stimuli/Ponzo_str-15.0_diff-0.18.png","response":"arrowdown","screen":"Trial","block":"Ponzo","correct_response":"arrowdown","trial_type":"image-keyboard-response","trial_index":55,"time_elapsed":71614,"internal_node_id":"0.0-4.0-2.0-1.24","screen_height":616,"screen_width":1280,"browser":"chrome","browser_version":"103.0.0","mobile":false,"os":"Windows 10","vsync_rate":55.61,"participant_id":"S00","prestimulus_duration":422,"correct":true,"type":"Ponzo","illusion_strength":-15,"illusion_difference":-0.17500000000000002,"block_number":1,"trial_number":25},{"rt":null,"stimulus":"<div style=\"font-size:60px;\">+</div>","response":null,"screen":"fixation","trial_type":"html-keyboard-response","trial_index":56,"time_elapsed":72067,"internal_node_id":"0.0-4.0-2.0-0.25","screen_height":616,"screen_width":1280,"browser":"chrome","browser_version":"103.0.0","mobile":false,"os":"Windows 10","vsync_rate":55.61,"participant_id":"S00","trial_duration":448},{"rt":878,"stimulus":"stimuli/Ponzo_str25.0_diff-0.18.png","response":"arrowup","screen":"Trial","block":"Ponzo","correct_response":"arrowdown","trial_type":"image-keyboard-response","trial_index":57,"time_elapsed":72946,"internal_node_id":"0.0-4.0-2.0-1.25","screen_height":616,"screen_width":1280,"browser":"chrome","browser_version":"103.0.0","mobile":false,"os":"Windows 10","vsync_rate":55.61,"participant_id":"S00","prestimulus_duration":453,"correct":false,"type":"Ponzo","illusion_strength":25,"illusion_difference":-0.17500000000000002,"block_number":1,"trial_number":26},{"rt":null,"stimulus":"<div style=\"font-size:60px;\">+</div>","response":null,"screen":"fixation","trial_type":"html-keyboard-response","trial_index":58,"time_elapsed":73892,"internal_node_id":"0.0-4.0-2.0-0.26","screen_height":616,"screen_width":1280,"browser":"chrome","browser_version":"103.0.0","mobile":false,"os":"Windows 10","vsync_rate":55.61,"participant_id":"S00","trial_duration":938},{"rt":1026,"stimulus":"stimuli/Ponzo_str-5.0_diff-0.18.png","response":"arrowdown","screen":"Trial","block":"Ponzo","correct_response":"arrowdown","trial_type":"image-keyboard-response","trial_index":59,"time_elapsed":74919,"internal_node_id":"0.0-4.0-2.0-1.26","screen_height":616,"screen_width":1280,"browser":"chrome","browser_version":"103.0.0","mobile":false,"os":"Windows 10","vsync_rate":55.61,"participant_id":"S00","prestimulus_duration":946,"correct":true,"type":"Ponzo","illusion_strength":-5,"illusion_difference":-0.17500000000000002,"block_number":1,"trial_number":27},{"rt":null,"stimulus":"<div style=\"font-size:60px;\">+</div>","response":null,"screen":"fixation","trial_type":"html-keyboard-response","trial_index":60,"time_elapsed":75296,"internal_node_id":"0.0-4.0-2.0-0.27","screen_height":616,"screen_width":1280,"browser":"chrome","browser_version":"103.0.0","mobile":false,"os":"Windows 10","vsync_rate":55.61,"participant_id":"S00","trial_duration":371},{"rt":858,"stimulus":"stimuli/Ponzo_str5.0_diff-0.04.png","response":"arrowdown","screen":"Trial","block":"Ponzo","correct_response":"arrowdown","trial_type":"image-keyboard-response","trial_index":61,"time_elapsed":76156,"internal_node_id":"0.0-4.0-2.0-1.27","screen_height":616,"screen_width":1280,"browser":"chrome","browser_version":"103.0.0","mobile":false,"os":"Windows 10","vsync_rate":55.61,"participant_id":"S00","prestimulus_duration":377,"correct":true,"type":"Ponzo","illusion_strength":5,"illusion_difference":-0.04,"block_number":1,"trial_number":28},{"rt":null,"stimulus":"<div style=\"font-size:60px;\">+</div>","response":null,"screen":"fixation","trial_type":"html-keyboard-response","trial_index":62,"time_elapsed":76582,"internal_node_id":"0.0-4.0-2.0-0.28","screen_height":616,"screen_width":1280,"browser":"chrome","browser_version":"103.0.0","mobile":false,"os":"Windows 10","vsync_rate":55.61,"participant_id":"S00","trial_duration":422},{"rt":857,"stimulus":"stimuli/Ponzo_str-15.0_diff-0.4.png","response":"arrowdown","screen":"Trial","block":"Ponzo","correct_response":"arrowdown","trial_type":"image-keyboard-response","trial_index":63,"time_elapsed":77440,"internal_node_id":"0.0-4.0-2.0-1.28","screen_height":616,"screen_width":1280,"browser":"chrome","browser_version":"103.0.0","mobile":false,"os":"Windows 10","vsync_rate":55.61,"participant_id":"S00","prestimulus_duration":426,"correct":true,"type":"Ponzo","illusion_strength":-15,"illusion_difference":-0.4,"block_number":1,"trial_number":29},{"rt":null,"stimulus":"<div style=\"font-size:60px;\">+</div>","response":null,"screen":"fixation","trial_type":"html-keyboard-response","trial_index":64,"time_elapsed":77710,"internal_node_id":"0.0-4.0-2.0-0.29","screen_height":616,"screen_width":1280,"browser":"chrome","browser_version":"103.0.0","mobile":false,"os":"Windows 10","vsync_rate":55.61,"participant_id":"S00","trial_duration":258},{"rt":894,"stimulus":"stimuli/Ponzo_str25.0_diff0.4.png","response":"arrowdown","screen":"Trial","block":"Ponzo","correct_response":"arrowup","trial_type":"image-keyboard-response","trial_index":65,"time_elapsed":78635,"internal_node_id":"0.0-4.0-2.0-1.29","screen_height":616,"screen_width":1280,"browser":"chrome","browser_version":"103.0.0","mobile":false,"os":"Windows 10","vsync_rate":55.61,"participant_id":"S00","prestimulus_duration":270,"correct":false,"type":"Ponzo","illusion_strength":25,"illusion_difference":0.4,"block_number":1,"trial_number":30},{"rt":null,"stimulus":"<div style=\"font-size:60px;\">+</div>","response":null,"screen":"fixation","trial_type":"html-keyboard-response","trial_index":66,"time_elapsed":79497,"internal_node_id":"0.0-4.0-2.0-0.30","screen_height":616,"screen_width":1280,"browser":"chrome","browser_version":"103.0.0","mobile":false,"os":"Windows 10","vsync_rate":55.61,"participant_id":"S00","trial_duration":849},{"rt":843,"stimulus":"stimuli/Ponzo_str-25.0_diff0.4.png","response":"arrowup","screen":"Trial","block":"Ponzo","correct_response":"arrowup","trial_type":"image-keyboard-response","trial_index":67,"time_elapsed":80341,"internal_node_id":"0.0-4.0-2.0-1.30","screen_height":616,"screen_width":1280,"browser":"chrome","browser_version":"103.0.0","mobile":false,"os":"Windows 10","vsync_rate":55.61,"participant_id":"S00","prestimulus_duration":862,"correct":true,"type":"Ponzo","illusion_strength":-25,"illusion_difference":0.4,"block_number":1,"trial_number":31},{"rt":null,"stimulus":"<div style=\"font-size:60px;\">+</div>","response":null,"screen":"fixation","trial_type":"html-keyboard-response","trial_index":68,"time_elapsed":80963,"internal_node_id":"0.0-4.0-2.0-0.31","screen_height":616,"screen_width":1280,"browser":"chrome","browser_version":"103.0.0","mobile":false,"os":"Windows 10","vsync_rate":55.61,"participant_id":"S00","trial_duration":609},{"rt":1040,"stimulus":"stimuli/Ponzo_str25.0_diff0.18.png","response":"arrowdown","screen":"Trial","block":"Ponzo","correct_response":"arrowup","trial_type":"image-keyboard-response","trial_index":69,"time_elapsed":82005,"internal_node_id":"0.0-4.0-2.0-1.31","screen_height":616,"screen_width":1280,"browser":"chrome","browser_version":"103.0.0","mobile":false,"os":"Windows 10","vsync_rate":55.61,"participant_id":"S00","prestimulus_duration":622,"correct":false,"type":"Ponzo","illusion_strength":25,"illusion_difference":0.17500000000000002,"block_number":1,"trial_number":32},{"rt":null,"stimulus":"<div style=\"font-size:60px;\">+</div>","response":null,"screen":"fixation","trial_type":"html-keyboard-response","trial_index":70,"time_elapsed":82533,"internal_node_id":"0.0-4.0-2.0-0.32","screen_height":616,"screen_width":1280,"browser":"chrome","browser_version":"103.0.0","mobile":false,"os":"Windows 10","vsync_rate":55.61,"participant_id":"S00","trial_duration":519},{"rt":945,"stimulus":"stimuli/Ponzo_str25.0_diff0.04.png","response":"arrowdown","screen":"Trial","block":"Ponzo","correct_response":"arrowup","trial_type":"image-keyboard-response","trial_index":71,"time_elapsed":83478,"internal_node_id":"0.0-4.0-2.0-1.32","screen_height":616,"screen_width":1280,"browser":"chrome","browser_version":"103.0.0","mobile":false,"os":"Windows 10","vsync_rate":55.61,"participant_id":"S00","prestimulus_duration":528,"correct":false,"type":"Ponzo","illusion_strength":25,"illusion_difference":0.04,"block_number":1,"trial_number":33},{"rt":null,"stimulus":"<div style=\"font-size:60px;\">+</div>","response":null,"screen":"fixation","trial_type":"html-keyboard-response","trial_index":72,"time_elapsed":84293,"internal_node_id":"0.0-4.0-2.0-0.33","screen_height":616,"screen_width":1280,"browser":"chrome","browser_version":"103.0.0","mobile":false,"os":"Windows 10","vsync_rate":55.61,"participant_id":"S00","trial_duration":811},{"rt":945,"stimulus":"stimuli/Ponzo_str5.0_diff0.4.png","response":"arrowup","screen":"Trial","block":"Ponzo","correct_response":"arrowup","trial_type":"image-keyboard-response","trial_index":73,"time_elapsed":85240,"internal_node_id":"0.0-4.0-2.0-1.33","screen_height":616,"screen_width":1280,"browser":"chrome","browser_version":"103.0.0","mobile":false,"os":"Windows 10","vsync_rate":55.61,"participant_id":"S00","prestimulus_duration":815,"correct":true,"type":"Ponzo","illusion_strength":5,"illusion_difference":0.4,"block_number":1,"trial_number":34},{"rt":null,"stimulus":"<div style=\"font-size:60px;\">+</div>","response":null,"screen":"fixation","trial_type":"html-keyboard-response","trial_index":74,"time_elapsed":85614,"internal_node_id":"0.0-4.0-2.0-0.34","screen_height":616,"screen_width":1280,"browser":"chrome","browser_version":"103.0.0","mobile":false,"os":"Windows 10","vsync_rate":55.61,"participant_id":"S00","trial_duration":364},{"rt":922,"stimulus":"stimuli/Ponzo_str25.0_diff-0.4.png","response":"arrowup","screen":"Trial","block":"Ponzo","correct_response":"arrowdown","trial_type":"image-keyboard-response","trial_index":75,"time_elapsed":86537,"internal_node_id":"0.0-4.0-2.0-1.34","screen_height":616,"screen_width":1280,"browser":"chrome","browser_version":"103.0.0","mobile":false,"os":"Windows 10","vsync_rate":55.61,"participant_id":"S00","prestimulus_duration":374,"correct":false,"type":"Ponzo","illusion_strength":25,"illusion_difference":-0.4,"block_number":1,"trial_number":35},{"rt":null,"stimulus":"<div style=\"font-size:60px;\">+</div>","response":null,"screen":"fixation","trial_type":"html-keyboard-response","trial_index":76,"time_elapsed":87076,"internal_node_id":"0.0-4.0-2.0-0.35","screen_height":616,"screen_width":1280,"browser":"chrome","browser_version":"103.0.0","mobile":false,"os":"Windows 10","vsync_rate":55.61,"participant_id":"S00","trial_duration":524},{"rt":1012,"stimulus":"stimuli/Ponzo_str-5.0_diff-0.04.png","response":"arrowdown","screen":"Trial","block":"Ponzo","correct_response":"arrowdown","trial_type":"image-keyboard-response","trial_index":77,"time_elapsed":88089,"internal_node_id":"0.0-4.0-2.0-1.35","screen_height":616,"screen_width":1280,"browser":"chrome","browser_version":"103.0.0","mobile":false,"os":"Windows 10","vsync_rate":55.61,"participant_id":"S00","prestimulus_duration":539,"correct":true,"type":"Ponzo","illusion_strength":-5,"illusion_difference":-0.04,"block_number":1,"trial_number":36},{"rt":3980,"stimulus":"<p>Your score for this illusion is <p style=\"color: black; font-size: 48px; font-weight: bold;\">3043</p><hr><hr><p>Can you do better in the next illusion?</p>","response":0,"screen":"block_results","trial_type":"html-button-response","trial_index":78,"time_elapsed":92077,"internal_node_id":"0.0-4.0-3.0","screen_height":616,"screen_width":1280,"browser":"chrome","browser_version":"103.0.0","mobile":false,"os":"Windows 10","vsync_rate":55.61,"participant_id":"S00"},{"success":true,"timeout":false,"failed_images":[],"failed_audio":[],"failed_video":[],"trial_type":"preload","trial_index":79,"time_elapsed":92082,"internal_node_id":"0.0-5.0-0.0","screen_height":616,"screen_width":1280,"browser":"chrome","browser_version":"103.0.0","mobile":false,"os":"Windows 10","vsync_rate":55.61,"participant_id":"S00"},{"rt":17330,"stimulus":"<p><b>Part 2</b></p><p>In this part, two horizontal red lines will appear one above the other.</p><p>Your task is to tell <b>the direction</b> towards which the red lines are converging, as fast as you can, and without making errors.</p><p>Don't get distracted by the black lines!</p><p>Press <b>the LEFT or the RIGHT arrow</b> to indicate the <b>direction where the red lines are pointing.</b></p><div style='float: center'><img src='utils/stimuli_demo/Zollner_Demo.png' height='300'></img><p><img src='utils/answer/answer_leftright_keyboard.PNG' height='150'></img></p><p class='small'>In this example, the correct answer is the <b>LEFT arrow</b>.</p></div><p>Are you ready? <b>Press ENTER to start</b></p>","response":"enter","trial_type":"html-keyboard-response","trial_index":80,"time_elapsed":109414,"internal_node_id":"0.0-5.0-1.0","screen_height":616,"screen_width":1280,"browser":"chrome","browser_version":"103.0.0","mobile":false,"os":"Windows 10","vsync_rate":55.61,"participant_id":"S00"},{"rt":null,"stimulus":"<div style=\"font-size:60px;\">+</div>","response":null,"screen":"fixation","trial_type":"html-keyboard-response","trial_index":81,"time_elapsed":110750,"internal_node_id":"0.0-5.0-2.0-0.0","screen_height":616,"screen_width":1280,"browser":"chrome","browser_version":"103.0.0","mobile":false,"os":"Windows 10","vsync_rate":55.61,"participant_id":"S00","trial_duration":805},{"rt":932,"stimulus":"stimuli/Zollner_str-70.0_diff3.0.png","response":"arrowright","screen":"Trial","block":"Zollner","correct_response":"arrowright","trial_type":"image-keyboard-response","trial_index":82,"time_elapsed":111683,"internal_node_id":"0.0-5.0-2.0-1.0","screen_height":616,"screen_width":1280,"browser":"chrome","browser_version":"103.0.0","mobile":false,"os":"Windows 10","vsync_rate":55.61,"participant_id":"S00","prestimulus_duration":1336,"correct":true,"type":"Zollner","illusion_strength":-70,"illusion_difference":3,"block_number":2,"trial_number":1},{"rt":null,"stimulus":"<div style=\"font-size:60px;\">+</div>","response":null,"screen":"fixation","trial_type":"html-keyboard-response","trial_index":83,"time_elapsed":112125,"internal_node_id":"0.0-5.0-2.0-0.1","screen_height":616,"screen_width":1280,"browser":"chrome","browser_version":"103.0.0","mobile":false,"os":"Windows 10","vsync_rate":55.61,"participant_id":"S00","trial_duration":436},{"rt":1162,"stimulus":"stimuli/Zollner_str70.0_diff1.56.png","response":"arrowleft","screen":"Trial","block":"Zollner","correct_response":"arrowright","trial_type":"image-keyboard-response","trial_index":84,"time_elapsed":113288,"internal_node_id":"0.0-5.0-2.0-1.1","screen_height":616,"screen_width":1280,"browser":"chrome","browser_version":"103.0.0","mobile":false,"os":"Windows 10","vsync_rate":55.61,"participant_id":"S00","prestimulus_duration":442,"correct":false,"type":"Zollner","illusion_strength":70,"illusion_difference":1.5625,"block_number":2,"trial_number":2},{"rt":null,"stimulus":"<div style=\"font-size:60px;\">+</div>","response":null,"screen":"fixation","trial_type":"html-keyboard-response","trial_index":85,"time_elapsed":113841,"internal_node_id":"0.0-5.0-2.0-0.2","screen_height":616,"screen_width":1280,"browser":"chrome","browser_version":"103.0.0","mobile":false,"os":"Windows 10","vsync_rate":55.61,"participant_id":"S00","trial_duration":549},{"rt":835,"stimulus":"stimuli/Zollner_str42.0_diff-0.7.png","response":"arrowleft","screen":"Trial","block":"Zollner","correct_response":"arrowleft","trial_type":"image-keyboard-response","trial_index":86,"time_elapsed":114677,"internal_node_id":"0.0-5.0-2.0-1.2","screen_height":616,"screen_width":1280,"browser":"chrome","browser_version":"103.0.0","mobile":false,"os":"Windows 10","vsync_rate":55.61,"participant_id":"S00","prestimulus_duration":553,"correct":true,"type":"Zollner","illusion_strength":42,"illusion_difference":-0.7,"block_number":2,"trial_number":3},{"rt":null,"stimulus":"<div style=\"font-size:60px;\">+</div>","response":null,"screen":"fixation","trial_type":"html-keyboard-response","trial_index":87,"time_elapsed":115303,"internal_node_id":"0.0-5.0-2.0-0.3","screen_height":616,"screen_width":1280,"browser":"chrome","browser_version":"103.0.0","mobile":false,"os":"Windows 10","vsync_rate":55.61,"participant_id":"S00","trial_duration":621},{"rt":861,"stimulus":"stimuli/Zollner_str14.0_diff-1.56.png","response":"arrowleft","screen":"Trial","block":"Zollner","correct_response":"arrowleft","trial_type":"image-keyboard-response","trial_index":88,"time_elapsed":116165,"internal_node_id":"0.0-5.0-2.0-1.3","screen_height":616,"screen_width":1280,"browser":"chrome","browser_version":"103.0.0","mobile":false,"os":"Windows 10","vsync_rate":55.61,"participant_id":"S00","prestimulus_duration":626,"correct":true,"type":"Zollner","illusion_strength":14,"illusion_difference":-1.5625,"block_number":2,"trial_number":4},{"rt":null,"stimulus":"<div style=\"font-size:60px;\">+</div>","response":null,"screen":"fixation","trial_type":"html-keyboard-response","trial_index":89,"time_elapsed":116494,"internal_node_id":"0.0-5.0-2.0-0.4","screen_height":616,"screen_width":1280,"browser":"chrome","browser_version":"103.0.0","mobile":false,"os":"Windows 10","vsync_rate":55.61,"participant_id":"S00","trial_duration":313},{"rt":1027,"stimulus":"stimuli/Zollner_str14.0_diff3.0.png","response":"arrowright","screen":"Trial","block":"Zollner","correct_response":"arrowright","trial_type":"image-keyboard-response","trial_index":90,"time_elapsed":117522,"internal_node_id":"0.0-5.0-2.0-1.4","screen_height":616,"screen_width":1280,"browser":"chrome","browser_version":"103.0.0","mobile":false,"os":"Windows 10","vsync_rate":55.61,"participant_id":"S00","prestimulus_duration":329,"correct":true,"type":"Zollner","illusion_strength":14,"illusion_difference":3,"block_number":2,"trial_number":5},{"rt":null,"stimulus":"<div style=\"font-size:60px;\">+</div>","response":null,"screen":"fixation","trial_type":"html-keyboard-response","trial_index":91,"time_elapsed":118405,"internal_node_id":"0.0-5.0-2.0-0.5","screen_height":616,"screen_width":1280,"browser":"chrome","browser_version":"103.0.0","mobile":false,"os":"Windows 10","vsync_rate":55.61,"participant_id":"S00","trial_duration":878},{"rt":819,"stimulus":"stimuli/Zollner_str42.0_diff3.0.png","response":"arrowleft","screen":"Trial","block":"Zollner","correct_response":"arrowright","trial_type":"image-keyboard-response","trial_index":92,"time_elapsed":119226,"internal_node_id":"0.0-5.0-2.0-1.5","screen_height":616,"screen_width":1280,"browser":"chrome","browser_version":"103.0.0","mobile":false,"os":"Windows 10","vsync_rate":55.61,"participant_id":"S00","prestimulus_duration":883,"correct":false,"type":"Zollner","illusion_strength":42,"illusion_difference":3,"block_number":2,"trial_number":6},{"rt":null,"stimulus":"<div style=\"font-size:60px;\">+</div>","response":null,"screen":"fixation","trial_type":"html-keyboard-response","trial_index":93,"time_elapsed":119784,"internal_node_id":"0.0-5.0-2.0-0.6","screen_height":616,"screen_width":1280,"browser":"chrome","browser_version":"103.0.0","mobile":false,"os":"Windows 10","vsync_rate":55.61,"participant_id":"S00","trial_duration":555},{"rt":847,"stimulus":"stimuli/Zollner_str14.0_diff-3.0.png","response":"arrowleft","screen":"Trial","block":"Zollner","correct_response":"arrowleft","trial_type":"image-keyboard-response","trial_index":94,"time_elapsed":120632,"internal_node_id":"0.0-5.0-2.0-1.6","screen_height":616,"screen_width":1280,"browser":"chrome","browser_version":"103.0.0","mobile":false,"os":"Windows 10","vsync_rate":55.61,"participant_id":"S00","prestimulus_duration":558,"correct":true,"type":"Zollner","illusion_strength":14,"illusion_difference":-3,"block_number":2,"trial_number":7},{"rt":null,"stimulus":"<div style=\"font-size:60px;\">+</div>","response":null,"screen":"fixation","trial_type":"html-keyboard-response","trial_index":95,"time_elapsed":121010,"internal_node_id":"0.0-5.0-2.0-0.7","screen_height":616,"screen_width":1280,"browser":"chrome","browser_version":"103.0.0","mobile":false,"os":"Windows 10","vsync_rate":55.61,"participant_id":"S00","trial_duration":369},{"rt":869,"stimulus":"stimuli/Zollner_str-70.0_diff0.7.png","response":"arrowleft","screen":"Trial","block":"Zollner","correct_response":"arrowright","trial_type":"image-keyboard-response","trial_index":96,"time_elapsed":121881,"internal_node_id":"0.0-5.0-2.0-1.7","screen_height":616,"screen_width":1280,"browser":"chrome","browser_version":"103.0.0","mobile":false,"os":"Windows 10","vsync_rate":55.61,"participant_id":"S00","prestimulus_duration":378,"correct":false,"type":"Zollner","illusion_strength":-70,"illusion_difference":0.7,"block_number":2,"trial_number":8},{"rt":null,"stimulus":"<div style=\"font-size:60px;\">+</div>","response":null,"screen":"fixation","trial_type":"html-keyboard-response","trial_index":97,"time_elapsed":122233,"internal_node_id":"0.0-5.0-2.0-0.8","screen_height":616,"screen_width":1280,"browser":"chrome","browser_version":"103.0.0","mobile":false,"os":"Windows 10","vsync_rate":55.61,"participant_id":"S00","trial_duration":337},{"rt":811,"stimulus":"stimuli/Zollner_str-42.0_diff3.0.png","response":"arrowright","screen":"Trial","block":"Zollner","correct_response":"arrowright","trial_type":"image-keyboard-response","trial_index":98,"time_elapsed":123046,"internal_node_id":"0.0-5.0-2.0-1.8","screen_height":616,"screen_width":1280,"browser":"chrome","browser_version":"103.0.0","mobile":false,"os":"Windows 10","vsync_rate":55.61,"participant_id":"S00","prestimulus_duration":352,"correct":true,"type":"Zollner","illusion_strength":-42,"illusion_difference":3,"block_number":2,"trial_number":9},{"rt":null,"stimulus":"<div style=\"font-size:60px;\">+</div>","response":null,"screen":"fixation","trial_type":"html-keyboard-response","trial_index":99,"time_elapsed":123824,"internal_node_id":"0.0-5.0-2.0-0.9","screen_height":616,"screen_width":1280,"browser":"chrome","browser_version":"103.0.0","mobile":false,"os":"Windows 10","vsync_rate":55.61,"participant_id":"S00","trial_duration":774},{"rt":1198,"stimulus":"stimuli/Zollner_str14.0_diff1.56.png","response":"arrowright","screen":"Trial","block":"Zollner","correct_response":"arrowright","trial_type":"image-keyboard-response","trial_index":100,"time_elapsed":125024,"internal_node_id":"0.0-5.0-2.0-1.9","screen_height":616,"screen_width":1280,"browser":"chrome","browser_version":"103.0.0","mobile":false,"os":"Windows 10","vsync_rate":55.61,"participant_id":"S00","prestimulus_duration":778,"correct":true,"type":"Zollner","illusion_strength":14,"illusion_difference":1.5625,"block_number":2,"trial_number":10},{"rt":null,"stimulus":"<div style=\"font-size:60px;\">+</div>","response":null,"screen":"fixation","trial_type":"html-keyboard-response","trial_index":101,"time_elapsed":125799,"internal_node_id":"0.0-5.0-2.0-0.10","screen_height":616,"screen_width":1280,"browser":"chrome","browser_version":"103.0.0","mobile":false,"os":"Windows 10","vsync_rate":55.61,"participant_id":"S00","trial_duration":768},{"rt":1255,"stimulus":"stimuli/Zollner_str70.0_diff-0.7.png","response":"arrowright","screen":"Trial","block":"Zollner","correct_response":"arrowleft","trial_type":"image-keyboard-response","trial_index":102,"time_elapsed":127056,"internal_node_id":"0.0-5.0-2.0-1.10","screen_height":616,"screen_width":1280,"browser":"chrome","browser_version":"103.0.0","mobile":false,"os":"Windows 10","vsync_rate":55.61,"participant_id":"S00","prestimulus_duration":775,"correct":false,"type":"Zollner","illusion_strength":70,"illusion_difference":-0.7,"block_number":2,"trial_number":11},{"rt":null,"stimulus":"<div style=\"font-size:60px;\">+</div>","response":null,"screen":"fixation","trial_type":"html-keyboard-response","trial_index":103,"time_elapsed":128011,"internal_node_id":"0.0-5.0-2.0-0.11","screen_height":616,"screen_width":1280,"browser":"chrome","browser_version":"103.0.0","mobile":false,"os":"Windows 10","vsync_rate":55.61,"participant_id":"S00","trial_duration":952},{"rt":892,"stimulus":"stimuli/Zollner_str70.0_diff-1.56.png","response":"arrowleft","screen":"Trial","block":"Zollner","correct_response":"arrowleft","trial_type":"image-keyboard-response","trial_index":104,"time_elapsed":128904,"internal_node_id":"0.0-5.0-2.0-1.11","screen_height":616,"screen_width":1280,"browser":"chrome","browser_version":"103.0.0","mobile":false,"os":"Windows 10","vsync_rate":55.61,"participant_id":"S00","prestimulus_duration":955,"correct":true,"type":"Zollner","illusion_strength":70,"illusion_difference":-1.5625,"block_number":2,"trial_number":12},{"rt":null,"stimulus":"<div style=\"font-size:60px;\">+</div>","response":null,"screen":"fixation","trial_type":"html-keyboard-response","trial_index":105,"time_elapsed":129526,"internal_node_id":"0.0-5.0-2.0-0.12","screen_height":616,"screen_width":1280,"browser":"chrome","browser_version":"103.0.0","mobile":false,"os":"Windows 10","vsync_rate":55.61,"participant_id":"S00","trial_duration":606},{"rt":1075,"stimulus":"stimuli/Zollner_str-14.0_diff-3.0.png","response":"arrowleft","screen":"Trial","block":"Zollner","correct_response":"arrowleft","trial_type":"image-keyboard-response","trial_index":106,"time_elapsed":130601,"internal_node_id":"0.0-5.0-2.0-1.12","screen_height":616,"screen_width":1280,"browser":"chrome","browser_version":"103.0.0","mobile":false,"os":"Windows 10","vsync_rate":55.61,"participant_id":"S00","prestimulus_duration":622,"correct":true,"type":"Zollner","illusion_strength":-14,"illusion_difference":-3,"block_number":2,"trial_number":13},{"rt":null,"stimulus":"<div style=\"font-size:60px;\">+</div>","response":null,"screen":"fixation","trial_type":"html-keyboard-response","trial_index":107,"time_elapsed":130951,"internal_node_id":"0.0-5.0-2.0-0.13","screen_height":616,"screen_width":1280,"browser":"chrome","browser_version":"103.0.0","mobile":false,"os":"Windows 10","vsync_rate":55.61,"participant_id":"S00","trial_duration":339},{"rt":987,"stimulus":"stimuli/Zollner_str-14.0_diff-1.56.png","response":"arrowleft","screen":"Trial","block":"Zollner","correct_response":"arrowleft","trial_type":"image-keyboard-response","trial_index":108,"time_elapsed":131939,"internal_node_id":"0.0-5.0-2.0-1.13","screen_height":616,"screen_width":1280,"browser":"chrome","browser_version":"103.0.0","mobile":false,"os":"Windows 10","vsync_rate":55.61,"participant_id":"S00","prestimulus_duration":350,"correct":true,"type":"Zollner","illusion_strength":-14,"illusion_difference":-1.5625,"block_number":2,"trial_number":14},{"rt":null,"stimulus":"<div style=\"font-size:60px;\">+</div>","response":null,"screen":"fixation","trial_type":"html-keyboard-response","trial_index":109,"time_elapsed":132610,"internal_node_id":"0.0-5.0-2.0-0.14","screen_height":616,"screen_width":1280,"browser":"chrome","browser_version":"103.0.0","mobile":false,"os":"Windows 10","vsync_rate":55.61,"participant_id":"S00","trial_duration":661},{"rt":976,"stimulus":"stimuli/Zollner_str-42.0_diff-0.7.png","response":"arrowleft","screen":"Trial","block":"Zollner","correct_response":"arrowleft","trial_type":"image-keyboard-response","trial_index":110,"time_elapsed":133588,"internal_node_id":"0.0-5.0-2.0-1.14","screen_height":616,"screen_width":1280,"browser":"chrome","browser_version":"103.0.0","mobile":false,"os":"Windows 10","vsync_rate":55.61,"participant_id":"S00","prestimulus_duration":671,"correct":true,"type":"Zollner","illusion_strength":-42,"illusion_difference":-0.7,"block_number":2,"trial_number":15},{"rt":null,"stimulus":"<div style=\"font-size:60px;\">+</div>","response":null,"screen":"fixation","trial_type":"html-keyboard-response","trial_index":111,"time_elapsed":134142,"internal_node_id":"0.0-5.0-2.0-0.15","screen_height":616,"screen_width":1280,"browser":"chrome","browser_version":"103.0.0","mobile":false,"os":"Windows 10","vsync_rate":55.61,"participant_id":"S00","trial_duration":550},{"rt":970,"stimulus":"stimuli/Zollner_str-70.0_diff1.56.png","response":"arrowleft","screen":"Trial","block":"Zollner","correct_response":"arrowright","trial_type":"image-keyboard-response","trial_index":112,"time_elapsed":135113,"internal_node_id":"0.0-5.0-2.0-1.15","screen_height":616,"screen_width":1280,"browser":"chrome","browser_version":"103.0.0","mobile":false,"os":"Windows 10","vsync_rate":55.61,"participant_id":"S00","prestimulus_duration":554,"correct":false,"type":"Zollner","illusion_strength":-70,"illusion_difference":1.5625,"block_number":2,"trial_number":16},{"rt":null,"stimulus":"<div style=\"font-size:60px;\">+</div>","response":null,"screen":"fixation","trial_type":"html-keyboard-response","trial_index":113,"time_elapsed":135808,"internal_node_id":"0.0-5.0-2.0-0.16","screen_height":616,"screen_width":1280,"browser":"chrome","browser_version":"103.0.0","mobile":false,"os":"Windows 10","vsync_rate":55.61,"participant_id":"S00","trial_duration":688},{"rt":901,"stimulus":"stimuli/Zollner_str-70.0_diff-1.56.png","response":"arrowleft","screen":"Trial","block":"Zollner","correct_response":"arrowleft","trial_type":"image-keyboard-response","trial_index":114,"time_elapsed":136711,"internal_node_id":"0.0-5.0-2.0-1.16","screen_height":616,"screen_width":1280,"browser":"chrome","browser_version":"103.0.0","mobile":false,"os":"Windows 10","vsync_rate":55.61,"participant_id":"S00","prestimulus_duration":695,"correct":true,"type":"Zollner","illusion_strength":-70,"illusion_difference":-1.5625,"block_number":2,"trial_number":17},{"rt":null,"stimulus":"<div style=\"font-size:60px;\">+</div>","response":null,"screen":"fixation","trial_type":"html-keyboard-response","trial_index":115,"time_elapsed":137274,"internal_node_id":"0.0-5.0-2.0-0.17","screen_height":616,"screen_width":1280,"browser":"chrome","browser_version":"103.0.0","mobile":false,"os":"Windows 10","vsync_rate":55.61,"participant_id":"S00","trial_duration":551},{"rt":1045,"stimulus":"stimuli/Zollner_str42.0_diff-1.56.png","response":"arrowleft","screen":"Trial","block":"Zollner","correct_response":"arrowleft","trial_type":"image-keyboard-response","trial_index":116,"time_elapsed":138320,"internal_node_id":"0.0-5.0-2.0-1.17","screen_height":616,"screen_width":1280,"browser":"chrome","browser_version":"103.0.0","mobile":false,"os":"Windows 10","vsync_rate":55.61,"participant_id":"S00","prestimulus_duration":563,"correct":true,"type":"Zollner","illusion_strength":42,"illusion_difference":-1.5625,"block_number":2,"trial_number":18},{"rt":null,"stimulus":"<div style=\"font-size:60px;\">+</div>","response":null,"screen":"fixation","trial_type":"html-keyboard-response","trial_index":117,"time_elapsed":138682,"internal_node_id":"0.0-5.0-2.0-0.18","screen_height":616,"screen_width":1280,"browser":"chrome","browser_version":"103.0.0","mobile":false,"os":"Windows 10","vsync_rate":55.61,"participant_id":"S00","trial_duration":346},{"rt":729,"stimulus":"stimuli/Zollner_str-70.0_diff-3.0.png","response":"arrowleft","screen":"Trial","block":"Zollner","correct_response":"arrowleft","trial_type":"image-keyboard-response","trial_index":118,"time_elapsed":139412,"internal_node_id":"0.0-5.0-2.0-1.18","screen_height":616,"screen_width":1280,"browser":"chrome","browser_version":"103.0.0","mobile":false,"os":"Windows 10","vsync_rate":55.61,"participant_id":"S00","prestimulus_duration":362,"correct":true,"type":"Zollner","illusion_strength":-70,"illusion_difference":-3,"block_number":2,"trial_number":19},{"rt":null,"stimulus":"<div style=\"font-size:60px;\">+</div>","response":null,"screen":"fixation","trial_type":"html-keyboard-response","trial_index":119,"time_elapsed":139863,"internal_node_id":"0.0-5.0-2.0-0.19","screen_height":616,"screen_width":1280,"browser":"chrome","browser_version":"103.0.0","mobile":false,"os":"Windows 10","vsync_rate":55.61,"participant_id":"S00","trial_duration":440},{"rt":1038,"stimulus":"stimuli/Zollner_str42.0_diff0.7.png","response":"arrowleft","screen":"Trial","block":"Zollner","correct_response":"arrowright","trial_type":"image-keyboard-response","trial_index":120,"time_elapsed":140903,"internal_node_id":"0.0-5.0-2.0-1.19","screen_height":616,"screen_width":1280,"browser":"chrome","browser_version":"103.0.0","mobile":false,"os":"Windows 10","vsync_rate":55.61,"participant_id":"S00","prestimulus_duration":451,"correct":false,"type":"Zollner","illusion_strength":42,"illusion_difference":0.7,"block_number":2,"trial_number":20},{"rt":null,"stimulus":"<div style=\"font-size:60px;\">+</div>","response":null,"screen":"fixation","trial_type":"html-keyboard-response","trial_index":121,"time_elapsed":141289,"internal_node_id":"0.0-5.0-2.0-0.20","screen_height":616,"screen_width":1280,"browser":"chrome","browser_version":"103.0.0","mobile":false,"os":"Windows 10","vsync_rate":55.61,"participant_id":"S00","trial_duration":382},{"rt":1546,"stimulus":"stimuli/Zollner_str-42.0_diff1.56.png","response":"arrowleft","screen":"Trial","block":"Zollner","correct_response":"arrowright","trial_type":"image-keyboard-response","trial_index":122,"time_elapsed":142836,"internal_node_id":"0.0-5.0-2.0-1.20","screen_height":616,"screen_width":1280,"browser":"chrome","browser_version":"103.0.0","mobile":false,"os":"Windows 10","vsync_rate":55.61,"participant_id":"S00","prestimulus_duration":386,"correct":false,"type":"Zollner","illusion_strength":-42,"illusion_difference":1.5625,"block_number":2,"trial_number":21},{"rt":null,"stimulus":"<div style=\"font-size:60px;\">+</div>","response":null,"screen":"fixation","trial_type":"html-keyboard-response","trial_index":123,"time_elapsed":143383,"internal_node_id":"0.0-5.0-2.0-0.21","screen_height":616,"screen_width":1280,"browser":"chrome","browser_version":"103.0.0","mobile":false,"os":"Windows 10","vsync_rate":55.61,"participant_id":"S00","trial_duration":539},{"rt":1228,"stimulus":"stimuli/Zollner_str14.0_diff-0.7.png","response":"arrowleft","screen":"Trial","block":"Zollner","correct_response":"arrowleft","trial_type":"image-keyboard-response","trial_index":124,"time_elapsed":144612,"internal_node_id":"0.0-5.0-2.0-1.21","screen_height":616,"screen_width":1280,"browser":"chrome","browser_version":"103.0.0","mobile":false,"os":"Windows 10","vsync_rate":55.61,"participant_id":"S00","prestimulus_duration":547,"correct":true,"type":"Zollner","illusion_strength":14,"illusion_difference":-0.7,"block_number":2,"trial_number":22},{"rt":null,"stimulus":"<div style=\"font-size:60px;\">+</div>","response":null,"screen":"fixation","trial_type":"html-keyboard-response","trial_index":125,"time_elapsed":145507,"internal_node_id":"0.0-5.0-2.0-0.22","screen_height":616,"screen_width":1280,"browser":"chrome","browser_version":"103.0.0","mobile":false,"os":"Windows 10","vsync_rate":55.61,"participant_id":"S00","trial_duration":893},{"rt":1010,"stimulus":"stimuli/Zollner_str42.0_diff-3.0.png","response":"arrowleft","screen":"Trial","block":"Zollner","correct_response":"arrowleft","trial_type":"image-keyboard-response","trial_index":126,"time_elapsed":146519,"internal_node_id":"0.0-5.0-2.0-1.22","screen_height":616,"screen_width":1280,"browser":"chrome","browser_version":"103.0.0","mobile":false,"os":"Windows 10","vsync_rate":55.61,"participant_id":"S00","prestimulus_duration":895,"correct":true,"type":"Zollner","illusion_strength":42,"illusion_difference":-3,"block_number":2,"trial_number":23},{"rt":null,"stimulus":"<div style=\"font-size:60px;\">+</div>","response":null,"screen":"fixation","trial_type":"html-keyboard-response","trial_index":127,"time_elapsed":147143,"internal_node_id":"0.0-5.0-2.0-0.23","screen_height":616,"screen_width":1280,"browser":"chrome","browser_version":"103.0.0","mobile":false,"os":"Windows 10","vsync_rate":55.61,"participant_id":"S00","trial_duration":617},{"rt":1144,"stimulus":"stimuli/Zollner_str-42.0_diff0.7.png","response":"arrowleft","screen":"Trial","block":"Zollner","correct_response":"arrowright","trial_type":"image-keyboard-response","trial_index":128,"time_elapsed":148288,"internal_node_id":"0.0-5.0-2.0-1.23","screen_height":616,"screen_width":1280,"browser":"chrome","browser_version":"103.0.0","mobile":false,"os":"Windows 10","vsync_rate":55.61,"participant_id":"S00","prestimulus_duration":624,"correct":false,"type":"Zollner","illusion_strength":-42,"illusion_difference":0.7,"block_number":2,"trial_number":24},{"rt":null,"stimulus":"<div style=\"font-size:60px;\">+</div>","response":null,"screen":"fixation","trial_type":"html-keyboard-response","trial_index":129,"time_elapsed":149284,"internal_node_id":"0.0-5.0-2.0-0.24","screen_height":616,"screen_width":1280,"browser":"chrome","browser_version":"103.0.0","mobile":false,"os":"Windows 10","vsync_rate":55.61,"participant_id":"S00","trial_duration":979},{"rt":1126,"stimulus":"stimuli/Zollner_str70.0_diff-3.0.png","response":"arrowleft","screen":"Trial","block":"Zollner","correct_response":"arrowleft","trial_type":"image-keyboard-response","trial_index":130,"time_elapsed":150411,"internal_node_id":"0.0-5.0-2.0-1.24","screen_height":616,"screen_width":1280,"browser":"chrome","browser_version":"103.0.0","mobile":false,"os":"Windows 10","vsync_rate":55.61,"participant_id":"S00","prestimulus_duration":996,"correct":true,"type":"Zollner","illusion_strength":70,"illusion_difference":-3,"block_number":2,"trial_number":25},{"rt":null,"stimulus":"<div style=\"font-size:60px;\">+</div>","response":null,"screen":"fixation","trial_type":"html-keyboard-response","trial_index":131,"time_elapsed":151250,"internal_node_id":"0.0-5.0-2.0-0.25","screen_height":616,"screen_width":1280,"browser":"chrome","browser_version":"103.0.0","mobile":false,"os":"Windows 10","vsync_rate":55.61,"participant_id":"S00","trial_duration":833},{"rt":872,"stimulus":"stimuli/Zollner_str42.0_diff1.56.png","response":"arrowleft","screen":"Trial","block":"Zollner","correct_response":"arrowright","trial_type":"image-keyboard-response","trial_index":132,"time_elapsed":152154,"internal_node_id":"0.0-5.0-2.0-1.25","screen_height":616,"screen_width":1280,"browser":"chrome","browser_version":"103.0.0","mobile":false,"os":"Windows 10","vsync_rate":55.61,"participant_id":"S00","prestimulus_duration":839,"correct":false,"type":"Zollner","illusion_strength":42,"illusion_difference":1.5625,"block_number":2,"trial_number":26},{"rt":null,"stimulus":"<div style=\"font-size:60px;\">+</div>","response":null,"screen":"fixation","trial_type":"html-keyboard-response","trial_index":133,"time_elapsed":152724,"internal_node_id":"0.0-5.0-2.0-0.26","screen_height":616,"screen_width":1280,"browser":"chrome","browser_version":"103.0.0","mobile":false,"os":"Windows 10","vsync_rate":55.61,"participant_id":"S00","trial_duration":558},{"rt":1012,"stimulus":"stimuli/Zollner_str-14.0_diff1.56.png","response":"arrowright","screen":"Trial","block":"Zollner","correct_response":"arrowright","trial_type":"image-keyboard-response","trial_index":134,"time_elapsed":153738,"internal_node_id":"0.0-5.0-2.0-1.26","screen_height":616,"screen_width":1280,"browser":"chrome","browser_version":"103.0.0","mobile":false,"os":"Windows 10","vsync_rate":55.61,"participant_id":"S00","prestimulus_duration":570,"correct":true,"type":"Zollner","illusion_strength":-14,"illusion_difference":1.5625,"block_number":2,"trial_number":27},{"rt":null,"stimulus":"<div style=\"font-size:60px;\">+</div>","response":null,"screen":"fixation","trial_type":"html-keyboard-response","trial_index":135,"time_elapsed":154182,"internal_node_id":"0.0-5.0-2.0-0.27","screen_height":616,"screen_width":1280,"browser":"chrome","browser_version":"103.0.0","mobile":false,"os":"Windows 10","vsync_rate":55.61,"participant_id":"S00","trial_duration":434},{"rt":1209,"stimulus":"stimuli/Zollner_str-14.0_diff3.0.png","response":"arrowright","screen":"Trial","block":"Zollner","correct_response":"arrowright","trial_type":"image-keyboard-response","trial_index":136,"time_elapsed":155392,"internal_node_id":"0.0-5.0-2.0-1.27","screen_height":616,"screen_width":1280,"browser":"chrome","browser_version":"103.0.0","mobile":false,"os":"Windows 10","vsync_rate":55.61,"participant_id":"S00","prestimulus_duration":444,"correct":true,"type":"Zollner","illusion_strength":-14,"illusion_difference":3,"block_number":2,"trial_number":28},{"rt":null,"stimulus":"<div style=\"font-size:60px;\">+</div>","response":null,"screen":"fixation","trial_type":"html-keyboard-response","trial_index":137,"time_elapsed":155795,"internal_node_id":"0.0-5.0-2.0-0.28","screen_height":616,"screen_width":1280,"browser":"chrome","browser_version":"103.0.0","mobile":false,"os":"Windows 10","vsync_rate":55.61,"participant_id":"S00","trial_duration":395},{"rt":823,"stimulus":"stimuli/Zollner_str-42.0_diff-3.0.png","response":"arrowleft","screen":"Trial","block":"Zollner","correct_response":"arrowleft","trial_type":"image-keyboard-response","trial_index":138,"time_elapsed":156619,"internal_node_id":"0.0-5.0-2.0-1.28","screen_height":616,"screen_width":1280,"browser":"chrome","browser_version":"103.0.0","mobile":false,"os":"Windows 10","vsync_rate":55.61,"participant_id":"S00","prestimulus_duration":403,"correct":true,"type":"Zollner","illusion_strength":-42,"illusion_difference":-3,"block_number":2,"trial_number":29},{"rt":null,"stimulus":"<div style=\"font-size:60px;\">+</div>","response":null,"screen":"fixation","trial_type":"html-keyboard-response","trial_index":139,"time_elapsed":156913,"internal_node_id":"0.0-5.0-2.0-0.29","screen_height":616,"screen_width":1280,"browser":"chrome","browser_version":"103.0.0","mobile":false,"os":"Windows 10","vsync_rate":55.61,"participant_id":"S00","trial_duration":290},{"rt":1351,"stimulus":"stimuli/Zollner_str-14.0_diff-0.7.png","response":"arrowleft","screen":"Trial","block":"Zollner","correct_response":"arrowleft","trial_type":"image-keyboard-response","trial_index":140,"time_elapsed":158265,"internal_node_id":"0.0-5.0-2.0-1.29","screen_height":616,"screen_width":1280,"browser":"chrome","browser_version":"103.0.0","mobile":false,"os":"Windows 10","vsync_rate":55.61,"participant_id":"S00","prestimulus_duration":294,"correct":true,"type":"Zollner","illusion_strength":-14,"illusion_difference":-0.7,"block_number":2,"trial_number":30},{"rt":null,"stimulus":"<div style=\"font-size:60px;\">+</div>","response":null,"screen":"fixation","trial_type":"html-keyboard-response","trial_index":141,"time_elapsed":158883,"internal_node_id":"0.0-5.0-2.0-0.30","screen_height":616,"screen_width":1280,"browser":"chrome","browser_version":"103.0.0","mobile":false,"os":"Windows 10","vsync_rate":55.61,"participant_id":"S00","trial_duration":603},{"rt":941,"stimulus":"stimuli/Zollner_str-70.0_diff-0.7.png","response":"arrowleft","screen":"Trial","block":"Zollner","correct_response":"arrowleft","trial_type":"image-keyboard-response","trial_index":142,"time_elapsed":159825,"internal_node_id":"0.0-5.0-2.0-1.30","screen_height":616,"screen_width":1280,"browser":"chrome","browser_version":"103.0.0","mobile":false,"os":"Windows 10","vsync_rate":55.61,"participant_id":"S00","prestimulus_duration":618,"correct":true,"type":"Zollner","illusion_strength":-70,"illusion_difference":-0.7,"block_number":2,"trial_number":31},{"rt":null,"stimulus":"<div style=\"font-size:60px;\">+</div>","response":null,"screen":"fixation","trial_type":"html-keyboard-response","trial_index":143,"time_elapsed":160371,"internal_node_id":"0.0-5.0-2.0-0.31","screen_height":616,"screen_width":1280,"browser":"chrome","browser_version":"103.0.0","mobile":false,"os":"Windows 10","vsync_rate":55.61,"participant_id":"S00","trial_duration":544},{"rt":922,"stimulus":"stimuli/Zollner_str14.0_diff0.7.png","response":"arrowleft","screen":"Trial","block":"Zollner","correct_response":"arrowright","trial_type":"image-keyboard-response","trial_index":144,"time_elapsed":161294,"internal_node_id":"0.0-5.0-2.0-1.31","screen_height":616,"screen_width":1280,"browser":"chrome","browser_version":"103.0.0","mobile":false,"os":"Windows 10","vsync_rate":55.61,"participant_id":"S00","prestimulus_duration":546,"correct":false,"type":"Zollner","illusion_strength":14,"illusion_difference":0.7,"block_number":2,"trial_number":32},{"rt":null,"stimulus":"<div style=\"font-size:60px;\">+</div>","response":null,"screen":"fixation","trial_type":"html-keyboard-response","trial_index":145,"time_elapsed":161569,"internal_node_id":"0.0-5.0-2.0-0.32","screen_height":616,"screen_width":1280,"browser":"chrome","browser_version":"103.0.0","mobile":false,"os":"Windows 10","vsync_rate":55.61,"participant_id":"S00","trial_duration":265},{"rt":1233,"stimulus":"stimuli/Zollner_str70.0_diff0.7.png","response":"arrowleft","screen":"Trial","block":"Zollner","correct_response":"arrowright","trial_type":"image-keyboard-response","trial_index":146,"time_elapsed":162803,"internal_node_id":"0.0-5.0-2.0-1.32","screen_height":616,"screen_width":1280,"browser":"chrome","browser_version":"103.0.0","mobile":false,"os":"Windows 10","vsync_rate":55.61,"participant_id":"S00","prestimulus_duration":275,"correct":false,"type":"Zollner","illusion_strength":70,"illusion_difference":0.7,"block_number":2,"trial_number":33},{"rt":null,"stimulus":"<div style=\"font-size:60px;\">+</div>","response":null,"screen":"fixation","trial_type":"html-keyboard-response","trial_index":147,"time_elapsed":163661,"internal_node_id":"0.0-5.0-2.0-0.33","screen_height":616,"screen_width":1280,"browser":"chrome","browser_version":"103.0.0","mobile":false,"os":"Windows 10","vsync_rate":55.61,"participant_id":"S00","trial_duration":845},{"rt":976,"stimulus":"stimuli/Zollner_str-14.0_diff0.7.png","response":"arrowleft","screen":"Trial","block":"Zollner","correct_response":"arrowright","trial_type":"image-keyboard-response","trial_index":148,"time_elapsed":164638,"internal_node_id":"0.0-5.0-2.0-1.33","screen_height":616,"screen_width":1280,"browser":"chrome","browser_version":"103.0.0","mobile":false,"os":"Windows 10","vsync_rate":55.61,"participant_id":"S00","prestimulus_duration":858,"correct":false,"type":"Zollner","illusion_strength":-14,"illusion_difference":0.7,"block_number":2,"trial_number":34},{"rt":null,"stimulus":"<div style=\"font-size:60px;\">+</div>","response":null,"screen":"fixation","trial_type":"html-keyboard-response","trial_index":149,"time_elapsed":165499,"internal_node_id":"0.0-5.0-2.0-0.34","screen_height":616,"screen_width":1280,"browser":"chrome","browser_version":"103.0.0","mobile":false,"os":"Windows 10","vsync_rate":55.61,"participant_id":"S00","trial_duration":859},{"rt":1105,"stimulus":"stimuli/Zollner_str70.0_diff3.0.png","response":"arrowleft","screen":"Trial","block":"Zollner","correct_response":"arrowright","trial_type":"image-keyboard-response","trial_index":150,"time_elapsed":166606,"internal_node_id":"0.0-5.0-2.0-1.34","screen_height":616,"screen_width":1280,"browser":"chrome","browser_version":"103.0.0","mobile":false,"os":"Windows 10","vsync_rate":55.61,"participant_id":"S00","prestimulus_duration":861,"correct":false,"type":"Zollner","illusion_strength":70,"illusion_difference":3,"block_number":2,"trial_number":35},{"rt":null,"stimulus":"<div style=\"font-size:60px;\">+</div>","response":null,"screen":"fixation","trial_type":"html-keyboard-response","trial_index":151,"time_elapsed":167291,"internal_node_id":"0.0-5.0-2.0-0.35","screen_height":616,"screen_width":1280,"browser":"chrome","browser_version":"103.0.0","mobile":false,"os":"Windows 10","vsync_rate":55.61,"participant_id":"S00","trial_duration":677},{"rt":866,"stimulus":"stimuli/Zollner_str-42.0_diff-1.56.png","response":"arrowleft","screen":"Trial","block":"Zollner","correct_response":"arrowleft","trial_type":"image-keyboard-response","trial_index":152,"time_elapsed":168159,"internal_node_id":"0.0-5.0-2.0-1.35","screen_height":616,"screen_width":1280,"browser":"chrome","browser_version":"103.0.0","mobile":false,"os":"Windows 10","vsync_rate":55.61,"participant_id":"S00","prestimulus_duration":685,"correct":true,"type":"Zollner","illusion_strength":-42,"illusion_difference":-1.5625,"block_number":2,"trial_number":36},{"rt":9067,"stimulus":"<p>Your score for this illusion is <p style=\"color: black; font-size: 48px; font-weight: bold;\">3456</p><hr><hr><p>Can you do better in the next illusion?</p>","response":0,"screen":"block_results","trial_type":"html-button-response","trial_index":153,"time_elapsed":177251,"internal_node_id":"0.0-5.0-3.0","screen_height":616,"screen_width":1280,"browser":"chrome","browser_version":"103.0.0","mobile":false,"os":"Windows 10","vsync_rate":55.61,"participant_id":"S00"},{"success":true,"timeout":false,"failed_images":[],"failed_audio":[],"failed_video":[],"trial_type":"preload","trial_index":154,"time_elapsed":177256,"internal_node_id":"0.0-6.0-0.0","screen_height":616,"screen_width":1280,"browser":"chrome","browser_version":"103.0.0","mobile":false,"os":"Windows 10","vsync_rate":55.61,"participant_id":"S00"},{"rt":2616,"stimulus":"<p><b>Part 3</b></p><p>In this part, two red circles will appear side by side on the screen.</p><p>Your task is to select which <b>red circle is bigger</b> in size as fast as you can, without making errors.</p><p>Don't get distracted by the surrounding black circles around the red circles!</p><p>Press <b>the LEFT or the RIGHT arrow</b> to indicate which is the biggest <b>red circle.</b></p><div style='float: center'><img src='utils/stimuli_demo/Ebbinghaus_Demo.png' height='300'></img><p><img src='utils/answer/answer_leftright_keyboard.PNG' height='150'></img></p><p class='small'>In this example, the correct answer is the <b>LEFT arrow</b>.</p></div><p>Are you ready? <b>Press ENTER to start</b></p>","response":"enter","trial_type":"html-keyboard-response","trial_index":155,"time_elapsed":179874,"internal_node_id":"0.0-6.0-1.0","screen_height":616,"screen_width":1280,"browser":"chrome","browser_version":"103.0.0","mobile":false,"os":"Windows 10","vsync_rate":55.61,"participant_id":"S00"},{"rt":null,"stimulus":"<div style=\"font-size:60px;\">+</div>","response":null,"screen":"fixation","trial_type":"html-keyboard-response","trial_index":156,"time_elapsed":181222,"internal_node_id":"0.0-6.0-2.0-0.0","screen_height":616,"screen_width":1280,"browser":"chrome","browser_version":"103.0.0","mobile":false,"os":"Windows 10","vsync_rate":55.61,"participant_id":"S00","trial_duration":831},{"rt":1608,"stimulus":"stimuli/Ebbinghaus_str1.08_diff-0.5.png","response":"arrowright","screen":"Trial","block":"Ebbinghaus","correct_response":"arrowright","trial_type":"image-keyboard-response","trial_index":157,"time_elapsed":182832,"internal_node_id":"0.0-6.0-2.0-1.0","screen_height":616,"screen_width":1280,"browser":"chrome","browser_version":"103.0.0","mobile":false,"os":"Windows 10","vsync_rate":55.61,"participant_id":"S00","prestimulus_duration":1348,"correct":true,"type":"Ebbinghaus","illusion_strength":1.0799999999999998,"illusion_difference":-0.5,"block_number":3,"trial_number":1},{"rt":null,"stimulus":"<div style=\"font-size:60px;\">+</div>","response":null,"screen":"fixation","trial_type":"html-keyboard-response","trial_index":158,"time_elapsed":183438,"internal_node_id":"0.0-6.0-2.0-0.1","screen_height":616,"screen_width":1280,"browser":"chrome","browser_version":"103.0.0","mobile":false,"os":"Windows 10","vsync_rate":55.61,"participant_id":"S00","trial_duration":601},{"rt":1432,"stimulus":"stimuli/Ebbinghaus_str1.8_diff-0.5.png","response":"arrowright","screen":"Trial","block":"Ebbinghaus","correct_response":"arrowright","trial_type":"image-keyboard-response","trial_index":159,"time_elapsed":184871,"internal_node_id":"0.0-6.0-2.0-1.1","screen_height":616,"screen_width":1280,"browser":"chrome","browser_version":"103.0.0","mobile":false,"os":"Windows 10","vsync_rate":55.61,"participant_id":"S00","prestimulus_duration":606,"correct":true,"type":"Ebbinghaus","illusion_strength":1.8,"illusion_difference":-0.5,"block_number":3,"trial_number":2},{"rt":null,"stimulus":"<div style=\"font-size:60px;\">+</div>","response":null,"screen":"fixation","trial_type":"html-keyboard-response","trial_index":160,"time_elapsed":185706,"internal_node_id":"0.0-6.0-2.0-0.2","screen_height":616,"screen_width":1280,"browser":"chrome","browser_version":"103.0.0","mobile":false,"os":"Windows 10","vsync_rate":55.61,"participant_id":"S00","trial_duration":818},{"rt":1743,"stimulus":"stimuli/Ebbinghaus_str-1.8_diff0.1.png","response":"arrowleft","screen":"Trial","block":"Ebbinghaus","correct_response":"arrowleft","trial_type":"image-keyboard-response","trial_index":161,"time_elapsed":187450,"internal_node_id":"0.0-6.0-2.0-1.2","screen_height":616,"screen_width":1280,"browser":"chrome","browser_version":"103.0.0","mobile":false,"os":"Windows 10","vsync_rate":55.61,"participant_id":"S00","prestimulus_duration":835,"correct":true,"type":"Ebbinghaus","illusion_strength":-1.8,"illusion_difference":0.1,"block_number":3,"trial_number":3},{"rt":null,"stimulus":"<div style=\"font-size:60px;\">+</div>","response":null,"screen":"fixation","trial_type":"html-keyboard-response","trial_index":162,"time_elapsed":188185,"internal_node_id":"0.0-6.0-2.0-0.3","screen_height":616,"screen_width":1280,"browser":"chrome","browser_version":"103.0.0","mobile":false,"os":"Windows 10","vsync_rate":55.61,"participant_id":"S00","trial_duration":718},{"rt":1103,"stimulus":"stimuli/Ebbinghaus_str-1.08_diff0.25.png","response":"arrowleft","screen":"Trial","block":"Ebbinghaus","correct_response":"arrowleft","trial_type":"image-keyboard-response","trial_index":163,"time_elapsed":189289,"internal_node_id":"0.0-6.0-2.0-1.3","screen_height":616,"screen_width":1280,"browser":"chrome","browser_version":"103.0.0","mobile":false,"os":"Windows 10","vsync_rate":55.61,"participant_id":"S00","prestimulus_duration":735,"correct":true,"type":"Ebbinghaus","illusion_strength":-1.08,"illusion_difference":0.25,"block_number":3,"trial_number":4},{"rt":null,"stimulus":"<div style=\"font-size:60px;\">+</div>","response":null,"screen":"fixation","trial_type":"html-keyboard-response","trial_index":164,"time_elapsed":189755,"internal_node_id":"0.0-6.0-2.0-0.4","screen_height":616,"screen_width":1280,"browser":"chrome","browser_version":"103.0.0","mobile":false,"os":"Windows 10","vsync_rate":55.61,"participant_id":"S00","trial_duration":453},{"rt":1432,"stimulus":"stimuli/Ebbinghaus_str1.8_diff0.25.png","response":"arrowright","screen":"Trial","block":"Ebbinghaus","correct_response":"arrowleft","trial_type":"image-keyboard-response","trial_index":165,"time_elapsed":191187,"internal_node_id":"0.0-6.0-2.0-1.4","screen_height":616,"screen_width":1280,"browser":"chrome","browser_version":"103.0.0","mobile":false,"os":"Windows 10","vsync_rate":55.61,"participant_id":"S00","prestimulus_duration":466,"correct":false,"type":"Ebbinghaus","illusion_strength":1.8,"illusion_difference":0.25,"block_number":3,"trial_number":5},{"rt":null,"stimulus":"<div style=\"font-size:60px;\">+</div>","response":null,"screen":"fixation","trial_type":"html-keyboard-response","trial_index":166,"time_elapsed":192012,"internal_node_id":"0.0-6.0-2.0-0.5","screen_height":616,"screen_width":1280,"browser":"chrome","browser_version":"103.0.0","mobile":false,"os":"Windows 10","vsync_rate":55.61,"participant_id":"S00","trial_duration":816},{"rt":2013,"stimulus":"stimuli/Ebbinghaus_str1.08_diff-0.1.png","response":"arrowleft","screen":"Trial","block":"Ebbinghaus","correct_response":"arrowright","trial_type":"image-keyboard-response","trial_index":167,"time_elapsed":194025,"internal_node_id":"0.0-6.0-2.0-1.5","screen_height":616,"screen_width":1280,"browser":"chrome","browser_version":"103.0.0","mobile":false,"os":"Windows 10","vsync_rate":55.61,"participant_id":"S00","prestimulus_duration":825,"correct":false,"type":"Ebbinghaus","illusion_strength":1.0799999999999998,"illusion_difference":-0.1,"block_number":3,"trial_number":6},{"rt":null,"stimulus":"<div style=\"font-size:60px;\">+</div>","response":null,"screen":"fixation","trial_type":"html-keyboard-response","trial_index":168,"time_elapsed":194634,"internal_node_id":"0.0-6.0-2.0-0.6","screen_height":616,"screen_width":1280,"browser":"chrome","browser_version":"103.0.0","mobile":false,"os":"Windows 10","vsync_rate":55.61,"participant_id":"S00","trial_duration":601},{"rt":1493,"stimulus":"stimuli/Ebbinghaus_str0.36_diff-0.25.png","response":"arrowleft","screen":"Trial","block":"Ebbinghaus","correct_response":"arrowright","trial_type":"image-keyboard-response","trial_index":169,"time_elapsed":196128,"internal_node_id":"0.0-6.0-2.0-1.6","screen_height":616,"screen_width":1280,"browser":"chrome","browser_version":"103.0.0","mobile":false,"os":"Windows 10","vsync_rate":55.61,"participant_id":"S00","prestimulus_duration":609,"correct":false,"type":"Ebbinghaus","illusion_strength":0.3600000000000001,"illusion_difference":-0.25,"block_number":3,"trial_number":7},{"rt":null,"stimulus":"<div style=\"font-size:60px;\">+</div>","response":null,"screen":"fixation","trial_type":"html-keyboard-response","trial_index":170,"time_elapsed":196679,"internal_node_id":"0.0-6.0-2.0-0.7","screen_height":616,"screen_width":1280,"browser":"chrome","browser_version":"103.0.0","mobile":false,"os":"Windows 10","vsync_rate":55.61,"participant_id":"S00","trial_duration":542},{"rt":1923,"stimulus":"stimuli/Ebbinghaus_str-1.8_diff0.5.png","response":"arrowleft","screen":"Trial","block":"Ebbinghaus","correct_response":"arrowleft","trial_type":"image-keyboard-response","trial_index":171,"time_elapsed":198604,"internal_node_id":"0.0-6.0-2.0-1.7","screen_height":616,"screen_width":1280,"browser":"chrome","browser_version":"103.0.0","mobile":false,"os":"Windows 10","vsync_rate":55.61,"participant_id":"S00","prestimulus_duration":551,"correct":true,"type":"Ebbinghaus","illusion_strength":-1.8,"illusion_difference":0.5,"block_number":3,"trial_number":8},{"rt":null,"stimulus":"<div style=\"font-size:60px;\">+</div>","response":null,"screen":"fixation","trial_type":"html-keyboard-response","trial_index":172,"time_elapsed":199376,"internal_node_id":"0.0-6.0-2.0-0.8","screen_height":616,"screen_width":1280,"browser":"chrome","browser_version":"103.0.0","mobile":false,"os":"Windows 10","vsync_rate":55.61,"participant_id":"S00","trial_duration":760},{"rt":3110,"stimulus":"stimuli/Ebbinghaus_str-1.08_diff-0.5.png","response":"arrowright","screen":"Trial","block":"Ebbinghaus","correct_response":"arrowright","trial_type":"image-keyboard-response","trial_index":173,"time_elapsed":202487,"internal_node_id":"0.0-6.0-2.0-1.8","screen_height":616,"screen_width":1280,"browser":"chrome","browser_version":"103.0.0","mobile":false,"os":"Windows 10","vsync_rate":55.61,"participant_id":"S00","prestimulus_duration":772,"correct":true,"type":"Ebbinghaus","illusion_strength":-1.08,"illusion_difference":-0.5,"block_number":3,"trial_number":9},{"rt":null,"stimulus":"<div style=\"font-size:60px;\">+</div>","response":null,"screen":"fixation","trial_type":"html-keyboard-response","trial_index":174,"time_elapsed":203073,"internal_node_id":"0.0-6.0-2.0-0.9","screen_height":616,"screen_width":1280,"browser":"chrome","browser_version":"103.0.0","mobile":false,"os":"Windows 10","vsync_rate":55.61,"participant_id":"S00","trial_duration":570},{"rt":1887,"stimulus":"stimuli/Ebbinghaus_str0.36_diff-0.5.png","response":"arrowright","screen":"Trial","block":"Ebbinghaus","correct_response":"arrowright","trial_type":"image-keyboard-response","trial_index":175,"time_elapsed":204961,"internal_node_id":"0.0-6.0-2.0-1.9","screen_height":616,"screen_width":1280,"browser":"chrome","browser_version":"103.0.0","mobile":false,"os":"Windows 10","vsync_rate":55.61,"participant_id":"S00","prestimulus_duration":586,"correct":true,"type":"Ebbinghaus","illusion_strength":0.3600000000000001,"illusion_difference":-0.5,"block_number":3,"trial_number":10},{"rt":null,"stimulus":"<div style=\"font-size:60px;\">+</div>","response":null,"screen":"fixation","trial_type":"html-keyboard-response","trial_index":176,"time_elapsed":205836,"internal_node_id":"0.0-6.0-2.0-0.10","screen_height":616,"screen_width":1280,"browser":"chrome","browser_version":"103.0.0","mobile":false,"os":"Windows 10","vsync_rate":55.61,"participant_id":"S00","trial_duration":862},{"rt":2142,"stimulus":"stimuli/Ebbinghaus_str-1.8_diff-0.5.png","response":"arrowright","screen":"Trial","block":"Ebbinghaus","correct_response":"arrowright","trial_type":"image-keyboard-response","trial_index":177,"time_elapsed":207979,"internal_node_id":"0.0-6.0-2.0-1.10","screen_height":616,"screen_width":1280,"browser":"chrome","browser_version":"103.0.0","mobile":false,"os":"Windows 10","vsync_rate":55.61,"participant_id":"S00","prestimulus_duration":875,"correct":true,"type":"Ebbinghaus","illusion_strength":-1.8,"illusion_difference":-0.5,"block_number":3,"trial_number":11},{"rt":null,"stimulus":"<div style=\"font-size:60px;\">+</div>","response":null,"screen":"fixation","trial_type":"html-keyboard-response","trial_index":178,"time_elapsed":208575,"internal_node_id":"0.0-6.0-2.0-0.11","screen_height":616,"screen_width":1280,"browser":"chrome","browser_version":"103.0.0","mobile":false,"os":"Windows 10","vsync_rate":55.61,"participant_id":"S00","trial_duration":584},{"rt":1750,"stimulus":"stimuli/Ebbinghaus_str-1.08_diff-0.25.png","response":"arrowright","screen":"Trial","block":"Ebbinghaus","correct_response":"arrowright","trial_type":"image-keyboard-response","trial_index":179,"time_elapsed":210325,"internal_node_id":"0.0-6.0-2.0-1.11","screen_height":616,"screen_width":1280,"browser":"chrome","browser_version":"103.0.0","mobile":false,"os":"Windows 10","vsync_rate":55.61,"participant_id":"S00","prestimulus_duration":596,"correct":true,"type":"Ebbinghaus","illusion_strength":-1.08,"illusion_difference":-0.25,"block_number":3,"trial_number":12},{"rt":null,"stimulus":"<div style=\"font-size:60px;\">+</div>","response":null,"screen":"fixation","trial_type":"html-keyboard-response","trial_index":180,"time_elapsed":210692,"internal_node_id":"0.0-6.0-2.0-0.12","screen_height":616,"screen_width":1280,"browser":"chrome","browser_version":"103.0.0","mobile":false,"os":"Windows 10","vsync_rate":55.61,"participant_id":"S00","trial_duration":353},{"rt":1377,"stimulus":"stimuli/Ebbinghaus_str1.8_diff0.5.png","response":"arrowleft","screen":"Trial","block":"Ebbinghaus","correct_response":"arrowleft","trial_type":"image-keyboard-response","trial_index":181,"time_elapsed":212070,"internal_node_id":"0.0-6.0-2.0-1.12","screen_height":616,"screen_width":1280,"browser":"chrome","browser_version":"103.0.0","mobile":false,"os":"Windows 10","vsync_rate":55.61,"participant_id":"S00","prestimulus_duration":367,"correct":true,"type":"Ebbinghaus","illusion_strength":1.8,"illusion_difference":0.5,"block_number":3,"trial_number":13},{"rt":null,"stimulus":"<div style=\"font-size:60px;\">+</div>","response":null,"screen":"fixation","trial_type":"html-keyboard-response","trial_index":182,"time_elapsed":212371,"internal_node_id":"0.0-6.0-2.0-0.13","screen_height":616,"screen_width":1280,"browser":"chrome","browser_version":"103.0.0","mobile":false,"os":"Windows 10","vsync_rate":55.61,"participant_id":"S00","trial_duration":289},{"rt":1527,"stimulus":"stimuli/Ebbinghaus_str-0.36_diff0.1.png","response":"arrowleft","screen":"Trial","block":"Ebbinghaus","correct_response":"arrowleft","trial_type":"image-keyboard-response","trial_index":183,"time_elapsed":213899,"internal_node_id":"0.0-6.0-2.0-1.13","screen_height":616,"screen_width":1280,"browser":"chrome","browser_version":"103.0.0","mobile":false,"os":"Windows 10","vsync_rate":55.61,"participant_id":"S00","prestimulus_duration":301,"correct":true,"type":"Ebbinghaus","illusion_strength":-0.3600000000000001,"illusion_difference":0.1,"block_number":3,"trial_number":14},{"rt":null,"stimulus":"<div style=\"font-size:60px;\">+</div>","response":null,"screen":"fixation","trial_type":"html-keyboard-response","trial_index":184,"time_elapsed":214626,"internal_node_id":"0.0-6.0-2.0-0.14","screen_height":616,"screen_width":1280,"browser":"chrome","browser_version":"103.0.0","mobile":false,"os":"Windows 10","vsync_rate":55.61,"participant_id":"S00","trial_duration":720},{"rt":1317,"stimulus":"stimuli/Ebbinghaus_str-1.08_diff-0.1.png","response":"arrowright","screen":"Trial","block":"Ebbinghaus","correct_response":"arrowright","trial_type":"image-keyboard-response","trial_index":185,"time_elapsed":215943,"internal_node_id":"0.0-6.0-2.0-1.14","screen_height":616,"screen_width":1280,"browser":"chrome","browser_version":"103.0.0","mobile":false,"os":"Windows 10","vsync_rate":55.61,"participant_id":"S00","prestimulus_duration":727,"correct":true,"type":"Ebbinghaus","illusion_strength":-1.08,"illusion_difference":-0.1,"block_number":3,"trial_number":15},{"rt":null,"stimulus":"<div style=\"font-size:60px;\">+</div>","response":null,"screen":"fixation","trial_type":"html-keyboard-response","trial_index":186,"time_elapsed":216798,"internal_node_id":"0.0-6.0-2.0-0.15","screen_height":616,"screen_width":1280,"browser":"chrome","browser_version":"103.0.0","mobile":false,"os":"Windows 10","vsync_rate":55.61,"participant_id":"S00","trial_duration":850},{"rt":1127,"stimulus":"stimuli/Ebbinghaus_str-1.8_diff-0.25.png","response":"arrowright","screen":"Trial","block":"Ebbinghaus","correct_response":"arrowright","trial_type":"image-keyboard-response","trial_index":187,"time_elapsed":217925,"internal_node_id":"0.0-6.0-2.0-1.15","screen_height":616,"screen_width":1280,"browser":"chrome","browser_version":"103.0.0","mobile":false,"os":"Windows 10","vsync_rate":55.61,"participant_id":"S00","prestimulus_duration":855,"correct":true,"type":"Ebbinghaus","illusion_strength":-1.8,"illusion_difference":-0.25,"block_number":3,"trial_number":16},{"rt":null,"stimulus":"<div style=\"font-size:60px;\">+</div>","response":null,"screen":"fixation","trial_type":"html-keyboard-response","trial_index":188,"time_elapsed":218621,"internal_node_id":"0.0-6.0-2.0-0.16","screen_height":616,"screen_width":1280,"browser":"chrome","browser_version":"103.0.0","mobile":false,"os":"Windows 10","vsync_rate":55.61,"participant_id":"S00","trial_duration":682},{"rt":1154,"stimulus":"stimuli/Ebbinghaus_str0.36_diff-0.1.png","response":"arrowright","screen":"Trial","block":"Ebbinghaus","correct_response":"arrowright","trial_type":"image-keyboard-response","trial_index":189,"time_elapsed":219776,"internal_node_id":"0.0-6.0-2.0-1.16","screen_height":616,"screen_width":1280,"browser":"chrome","browser_version":"103.0.0","mobile":false,"os":"Windows 10","vsync_rate":55.61,"participant_id":"S00","prestimulus_duration":696,"correct":true,"type":"Ebbinghaus","illusion_strength":0.3600000000000001,"illusion_difference":-0.1,"block_number":3,"trial_number":17},{"rt":null,"stimulus":"<div style=\"font-size:60px;\">+</div>","response":null,"screen":"fixation","trial_type":"html-keyboard-response","trial_index":190,"time_elapsed":220393,"internal_node_id":"0.0-6.0-2.0-0.17","screen_height":616,"screen_width":1280,"browser":"chrome","browser_version":"103.0.0","mobile":false,"os":"Windows 10","vsync_rate":55.61,"participant_id":"S00","trial_duration":616},{"rt":1348,"stimulus":"stimuli/Ebbinghaus_str1.08_diff0.1.png","response":"arrowright","screen":"Trial","block":"Ebbinghaus","correct_response":"arrowleft","trial_type":"image-keyboard-response","trial_index":191,"time_elapsed":221742,"internal_node_id":"0.0-6.0-2.0-1.17","screen_height":616,"screen_width":1280,"browser":"chrome","browser_version":"103.0.0","mobile":false,"os":"Windows 10","vsync_rate":55.61,"participant_id":"S00","prestimulus_duration":617,"correct":false,"type":"Ebbinghaus","illusion_strength":1.0799999999999998,"illusion_difference":0.1,"block_number":3,"trial_number":18},{"rt":null,"stimulus":"<div style=\"font-size:60px;\">+</div>","response":null,"screen":"fixation","trial_type":"html-keyboard-response","trial_index":192,"time_elapsed":222556,"internal_node_id":"0.0-6.0-2.0-0.18","screen_height":616,"screen_width":1280,"browser":"chrome","browser_version":"103.0.0","mobile":false,"os":"Windows 10","vsync_rate":55.61,"participant_id":"S00","trial_duration":805},{"rt":871,"stimulus":"stimuli/Ebbinghaus_str1.8_diff-0.1.png","response":"arrowright","screen":"Trial","block":"Ebbinghaus","correct_response":"arrowright","trial_type":"image-keyboard-response","trial_index":193,"time_elapsed":223428,"internal_node_id":"0.0-6.0-2.0-1.18","screen_height":616,"screen_width":1280,"browser":"chrome","browser_version":"103.0.0","mobile":false,"os":"Windows 10","vsync_rate":55.61,"participant_id":"S00","prestimulus_duration":814,"correct":true,"type":"Ebbinghaus","illusion_strength":1.8,"illusion_difference":-0.1,"block_number":3,"trial_number":19},{"rt":null,"stimulus":"<div style=\"font-size:60px;\">+</div>","response":null,"screen":"fixation","trial_type":"html-keyboard-response","trial_index":194,"time_elapsed":224072,"internal_node_id":"0.0-6.0-2.0-0.19","screen_height":616,"screen_width":1280,"browser":"chrome","browser_version":"103.0.0","mobile":false,"os":"Windows 10","vsync_rate":55.61,"participant_id":"S00","trial_duration":634},{"rt":1006,"stimulus":"stimuli/Ebbinghaus_str1.8_diff0.1.png","response":"arrowright","screen":"Trial","block":"Ebbinghaus","correct_response":"arrowleft","trial_type":"image-keyboard-response","trial_index":195,"time_elapsed":225078,"internal_node_id":"0.0-6.0-2.0-1.19","screen_height":616,"screen_width":1280,"browser":"chrome","browser_version":"103.0.0","mobile":false,"os":"Windows 10","vsync_rate":55.61,"participant_id":"S00","prestimulus_duration":644,"correct":false,"type":"Ebbinghaus","illusion_strength":1.8,"illusion_difference":0.1,"block_number":3,"trial_number":20},{"rt":null,"stimulus":"<div style=\"font-size:60px;\">+</div>","response":null,"screen":"fixation","trial_type":"html-keyboard-response","trial_index":196,"time_elapsed":226069,"internal_node_id":"0.0-6.0-2.0-0.20","screen_height":616,"screen_width":1280,"browser":"chrome","browser_version":"103.0.0","mobile":false,"os":"Windows 10","vsync_rate":55.61,"participant_id":"S00","trial_duration":982},{"rt":1035,"stimulus":"stimuli/Ebbinghaus_str0.36_diff0.5.png","response":"arrowleft","screen":"Trial","block":"Ebbinghaus","correct_response":"arrowleft","trial_type":"image-keyboard-response","trial_index":197,"time_elapsed":227105,"internal_node_id":"0.0-6.0-2.0-1.20","screen_height":616,"screen_width":1280,"browser":"chrome","browser_version":"103.0.0","mobile":false,"os":"Windows 10","vsync_rate":55.61,"participant_id":"S00","prestimulus_duration":991,"correct":true,"type":"Ebbinghaus","illusion_strength":0.3600000000000001,"illusion_difference":0.5,"block_number":3,"trial_number":21},{"rt":null,"stimulus":"<div style=\"font-size:60px;\">+</div>","response":null,"screen":"fixation","trial_type":"html-keyboard-response","trial_index":198,"time_elapsed":227394,"internal_node_id":"0.0-6.0-2.0-0.21","screen_height":616,"screen_width":1280,"browser":"chrome","browser_version":"103.0.0","mobile":false,"os":"Windows 10","vsync_rate":55.61,"participant_id":"S00","trial_duration":274},{"rt":1122,"stimulus":"stimuli/Ebbinghaus_str1.8_diff-0.25.png","response":"arrowleft","screen":"Trial","block":"Ebbinghaus","correct_response":"arrowright","trial_type":"image-keyboard-response","trial_index":199,"time_elapsed":228517,"internal_node_id":"0.0-6.0-2.0-1.21","screen_height":616,"screen_width":1280,"browser":"chrome","browser_version":"103.0.0","mobile":false,"os":"Windows 10","vsync_rate":55.61,"participant_id":"S00","prestimulus_duration":289,"correct":false,"type":"Ebbinghaus","illusion_strength":1.8,"illusion_difference":-0.25,"block_number":3,"trial_number":22},{"rt":null,"stimulus":"<div style=\"font-size:60px;\">+</div>","response":null,"screen":"fixation","trial_type":"html-keyboard-response","trial_index":200,"time_elapsed":229030,"internal_node_id":"0.0-6.0-2.0-0.22","screen_height":616,"screen_width":1280,"browser":"chrome","browser_version":"103.0.0","mobile":false,"os":"Windows 10","vsync_rate":55.61,"participant_id":"S00","trial_duration":509},{"rt":1195,"stimulus":"stimuli/Ebbinghaus_str1.08_diff0.5.png","response":"arrowleft","screen":"Trial","block":"Ebbinghaus","correct_response":"arrowleft","trial_type":"image-keyboard-response","trial_index":201,"time_elapsed":230227,"internal_node_id":"0.0-6.0-2.0-1.22","screen_height":616,"screen_width":1280,"browser":"chrome","browser_version":"103.0.0","mobile":false,"os":"Windows 10","vsync_rate":55.61,"participant_id":"S00","prestimulus_duration":513,"correct":true,"type":"Ebbinghaus","illusion_strength":1.0799999999999998,"illusion_difference":0.5,"block_number":3,"trial_number":23},{"rt":null,"stimulus":"<div style=\"font-size:60px;\">+</div>","response":null,"screen":"fixation","trial_type":"html-keyboard-response","trial_index":202,"time_elapsed":230959,"internal_node_id":"0.0-6.0-2.0-0.23","screen_height":616,"screen_width":1280,"browser":"chrome","browser_version":"103.0.0","mobile":false,"os":"Windows 10","vsync_rate":55.61,"participant_id":"S00","trial_duration":715},{"rt":972,"stimulu