[{"success":true,"trial_type":"fullscreen","trial_index":0,"time_elapsed":1918,"internal_node_id":"0.0-0.0","screen_height":764,"screen_width":1601,"browser":"chrome","browser_version":"103.0.0","mobile":false,"os":"Windows 10","vsync_rate":61.29,"participant_id":"MAX_3"},{"width":1601,"height":764,"webaudio":true,"browser":"chrome","browser_version":"103.0.0","mobile":false,"os":"Windows 10","fullscreen":true,"vsync_rate":61.29,"webcam":true,"microphone":true,"screen":"browser_info","trial_type":"browser-check","trial_index":1,"time_elapsed":3259,"internal_node_id":"0.0-1.0","screen_height":764,"screen_width":1601,"participant_id":"MAX_3"},{"rt":5126,"response":{"Participant_ID":"MAX_3"},"screen":"participant_info","version":"1.0","date":"13/07/2022","time":"10:29:57","trial_type":"survey-text","trial_index":2,"time_elapsed":8389,"internal_node_id":"0.0-2.0","screen_height":764,"screen_width":1601,"browser":"chrome","browser_version":"103.0.0","mobile":false,"os":"Windows 10","vsync_rate":61.29,"participant_id":"MAX_3"},{"rt":20844,"stimulus":"<p><b>The Illusion Game</b></p><p>In this reaction-time game, you will need to be <b>as fast as possible</b> and make correct responses by resisting different visual illusions.</p><p>Sometimes, it's very hard and you want to rely on your intuition and gut feeling to answer fast without making errors.</p><p>Don't worry, we will show you examples of each illusion before each block. Each illusion block will be repeated two times (so that you have an opportunity to improve your score!), but the order of the blocks is random.</p><p>Remember, your goal is to be as <b>fast</b> and <b>accurate</b> as possible. Good luck!</p>","response":0,"screen":"general_instructions","trial_type":"html-button-response","trial_index":3,"time_elapsed":29237,"internal_node_id":"0.0-3.0","screen_height":764,"screen_width":1601,"browser":"chrome","browser_version":"103.0.0","mobile":false,"os":"Windows 10","vsync_rate":61.29,"participant_id":"MAX_3"},{"success":true,"timeout":false,"failed_images":[],"failed_audio":[],"failed_video":[],"trial_type":"preload","trial_index":4,"time_elapsed":29240,"internal_node_id":"0.0-4.0-0.0","screen_height":764,"screen_width":1601,"browser":"chrome","browser_version":"103.0.0","mobile":false,"os":"Windows 10","vsync_rate":61.29,"participant_id":"MAX_3"},{"rt":9662,"stimulus":"<p><b>Part 1</b></p><p>In this part, two red circles will appear side by side on the screen.</p><p>Your task is to select which <b>red circle is bigger</b> in size as fast as you can, without making errors.</p><p>Don't get distracted by the black outlines around the red circles!</p><p>Press <b>the LEFT or the RIGHT arrow</b> to indicate where is the biggest <b>red circle.</b></p><div style='float: center'><img src='utils/stimuli_demo/Delboeuf_Demo.png' height='300'></img><p><img src='utils/answer/answer_leftright_keyboard.PNG' height='150'></img></p><p class='small'>In this example, the correct answer is the <b>LEFT arrow</b>.</p></div><p>Are you ready? <b>Press ENTER to start</b></p>","response":"enter","trial_type":"html-keyboard-response","trial_index":5,"time_elapsed":38904,"internal_node_id":"0.0-4.0-1.0","screen_height":764,"screen_width":1601,"browser":"chrome","browser_version":"103.0.0","mobile":false,"os":"Windows 10","vsync_rate":61.29,"participant_id":"MAX_3"},{"rt":null,"stimulus":"<div style=\"font-size:60px;\">+</div>","response":null,"screen":"fixation","trial_type":"html-keyboard-response","trial_index":6,"time_elapsed":40308,"internal_node_id":"0.0-4.0-2.0-0.0","screen_height":764,"screen_width":1601,"browser":"chrome","browser_version":"103.0.0","mobile":false,"os":"Windows 10","vsync_rate":61.29,"participant_id":"MAX_3","trial_duration":900},{"rt":645,"stimulus":"stimuli/Delboeuf_str1.8_diff-0.35.png","response":"arrowright","screen":"Trial","block":"Delboeuf","correct_response":"arrowright","trial_type":"image-keyboard-response","trial_index":7,"time_elapsed":40956,"internal_node_id":"0.0-4.0-2.0-1.0","screen_height":764,"screen_width":1601,"browser":"chrome","browser_version":"103.0.0","mobile":false,"os":"Windows 10","vsync_rate":61.29,"participant_id":"MAX_3","prestimulus_duration":1404,"correct":true,"type":"Delboeuf","illusion_strength":1.8,"illusion_difference":-0.35000000000000003,"block_number":1,"trial_number":1},{"rt":null,"stimulus":"<div style=\"font-size:60px;\">+</div>","response":null,"screen":"fixation","trial_type":"html-keyboard-response","trial_index":8,"time_elapsed":41841,"internal_node_id":"0.0-4.0-2.0-0.1","screen_height":764,"screen_width":1601,"browser":"chrome","browser_version":"103.0.0","mobile":false,"os":"Windows 10","vsync_rate":61.29,"participant_id":"MAX_3","trial_duration":878},{"rt":818,"stimulus":"stimuli/Delboeuf_str0.36_diff-0.35.png","response":"arrowright","screen":"Trial","block":"Delboeuf","correct_response":"arrowright","trial_type":"image-keyboard-response","trial_index":9,"time_elapsed":42663,"internal_node_id":"0.0-4.0-2.0-1.1","screen_height":764,"screen_width":1601,"browser":"chrome","browser_version":"103.0.0","mobile":false,"os":"Windows 10","vsync_rate":61.29,"participant_id":"MAX_3","prestimulus_duration":885,"correct":true,"type":"Delboeuf","illusion_strength":0.3600000000000001,"illusion_difference":-0.35000000000000003,"block_number":1,"trial_number":2},{"rt":null,"stimulus":"<div style=\"font-size:60px;\">+</div>","response":null,"screen":"fixation","trial_type":"html-keyboard-response","trial_index":10,"time_elapsed":43402,"internal_node_id":"0.0-4.0-2.0-0.2","screen_height":764,"screen_width":1601,"browser":"chrome","browser_version":"103.0.0","mobile":false,"os":"Windows 10","vsync_rate":61.29,"participant_id":"MAX_3","trial_duration":727},{"rt":643,"stimulus":"stimuli/Delboeuf_str-1.8_diff0.8.png","response":"arrowleft","screen":"Trial","block":"Delboeuf","correct_response":"arrowleft","trial_type":"image-keyboard-response","trial_index":11,"time_elapsed":44046,"internal_node_id":"0.0-4.0-2.0-1.2","screen_height":764,"screen_width":1601,"browser":"chrome","browser_version":"103.0.0","mobile":false,"os":"Windows 10","vsync_rate":61.29,"participant_id":"MAX_3","prestimulus_duration":739,"correct":true,"type":"Delboeuf","illusion_strength":-1.8,"illusion_difference":0.8,"block_number":1,"trial_number":3},{"rt":null,"stimulus":"<div style=\"font-size:60px;\">+</div>","response":null,"screen":"fixation","trial_type":"html-keyboard-response","trial_index":12,"time_elapsed":44510,"internal_node_id":"0.0-4.0-2.0-0.3","screen_height":764,"screen_width":1601,"browser":"chrome","browser_version":"103.0.0","mobile":false,"os":"Windows 10","vsync_rate":61.29,"participant_id":"MAX_3","trial_duration":451},{"rt":831,"stimulus":"stimuli/Delboeuf_str1.08_diff-0.08.png","response":"arrowleft","screen":"Trial","block":"Delboeuf","correct_response":"arrowright","trial_type":"image-keyboard-response","trial_index":13,"time_elapsed":45342,"internal_node_id":"0.0-4.0-2.0-1.3","screen_height":764,"screen_width":1601,"browser":"chrome","browser_version":"103.0.0","mobile":false,"os":"Windows 10","vsync_rate":61.29,"participant_id":"MAX_3","prestimulus_duration":464,"correct":false,"type":"Delboeuf","illusion_strength":1.0799999999999998,"illusion_difference":-0.08,"block_number":1,"trial_number":4},{"rt":null,"stimulus":"<div style=\"font-size:60px;\">+</div>","response":null,"screen":"fixation","trial_type":"html-keyboard-response","trial_index":14,"time_elapsed":46046,"internal_node_id":"0.0-4.0-2.0-0.4","screen_height":764,"screen_width":1601,"browser":"chrome","browser_version":"103.0.0","mobile":false,"os":"Windows 10","vsync_rate":61.29,"participant_id":"MAX_3","trial_duration":700},{"rt":673,"stimulus":"stimuli/Delboeuf_str-0.36_diff0.35.png","response":"arrowleft","screen":"Trial","block":"Delboeuf","correct_response":"arrowleft","trial_type":"image-keyboard-response","trial_index":15,"time_elapsed":46721,"internal_node_id":"0.0-4.0-2.0-1.4","screen_height":764,"screen_width":1601,"browser":"chrome","browser_version":"103.0.0","mobile":false,"os":"Windows 10","vsync_rate":61.29,"participant_id":"MAX_3","prestimulus_duration":704,"correct":true,"type":"Delboeuf","illusion_strength":-0.3600000000000001,"illusion_difference":0.35000000000000003,"block_number":1,"trial_number":5},{"rt":null,"stimulus":"<div style=\"font-size:60px;\">+</div>","response":null,"screen":"fixation","trial_type":"html-keyboard-response","trial_index":16,"time_elapsed":47723,"internal_node_id":"0.0-4.0-2.0-0.5","screen_height":764,"screen_width":1601,"browser":"chrome","browser_version":"103.0.0","mobile":false,"os":"Windows 10","vsync_rate":61.29,"participant_id":"MAX_3","trial_duration":990},{"rt":712,"stimulus":"stimuli/Delboeuf_str1.08_diff0.8.png","response":"arrowleft","screen":"Trial","block":"Delboeuf","correct_response":"arrowleft","trial_type":"image-keyboard-response","trial_index":17,"time_elapsed":48438,"internal_node_id":"0.0-4.0-2.0-1.5","screen_height":764,"screen_width":1601,"browser":"chrome","browser_version":"103.0.0","mobile":false,"os":"Windows 10","vsync_rate":61.29,"participant_id":"MAX_3","prestimulus_duration":1002,"correct":true,"type":"Delboeuf","illusion_strength":1.0799999999999998,"illusion_difference":0.8,"block_number":1,"trial_number":6},{"rt":null,"stimulus":"<div style=\"font-size:60px;\">+</div>","response":null,"screen":"fixation","trial_type":"html-keyboard-response","trial_index":18,"time_elapsed":49316,"internal_node_id":"0.0-4.0-2.0-0.6","screen_height":764,"screen_width":1601,"browser":"chrome","browser_version":"103.0.0","mobile":false,"os":"Windows 10","vsync_rate":61.29,"participant_id":"MAX_3","trial_duration":874},{"rt":770,"stimulus":"stimuli/Delboeuf_str1.8_diff0.35.png","response":"arrowright","screen":"Trial","block":"Delboeuf","correct_response":"arrowleft","trial_type":"image-keyboard-response","trial_index":19,"time_elapsed":50089,"internal_node_id":"0.0-4.0-2.0-1.6","screen_height":764,"screen_width":1601,"browser":"chrome","browser_version":"103.0.0","mobile":false,"os":"Windows 10","vsync_rate":61.29,"participant_id":"MAX_3","prestimulus_duration":878,"correct":false,"type":"Delboeuf","illusion_strength":1.8,"illusion_difference":0.35000000000000003,"block_number":1,"trial_number":7},{"rt":null,"stimulus":"<div style=\"font-size:60px;\">+</div>","response":null,"screen":"fixation","trial_type":"html-keyboard-response","trial_index":20,"time_elapsed":50592,"internal_node_id":"0.0-4.0-2.0-0.7","screen_height":764,"screen_width":1601,"browser":"chrome","browser_version":"103.0.0","mobile":false,"os":"Windows 10","vsync_rate":61.29,"participant_id":"MAX_3","trial_duration":498},{"rt":702,"stimulus":"stimuli/Delboeuf_str0.36_diff-0.8.png","response":"arrowright","screen":"Trial","block":"Delboeuf","correct_response":"arrowright","trial_type":"image-keyboard-response","trial_index":21,"time_elapsed":51295,"internal_node_id":"0.0-4.0-2.0-1.7","screen_height":764,"screen_width":1601,"browser":"chrome","browser_version":"103.0.0","mobile":false,"os":"Windows 10","vsync_rate":61.29,"participant_id":"MAX_3","prestimulus_duration":503,"correct":true,"type":"Delboeuf","illusion_strength":0.3600000000000001,"illusion_difference":-0.8,"block_number":1,"trial_number":8},{"rt":null,"stimulus":"<div style=\"font-size:60px;\">+</div>","response":null,"screen":"fixation","trial_type":"html-keyboard-response","trial_index":22,"time_elapsed":51902,"internal_node_id":"0.0-4.0-2.0-0.8","screen_height":764,"screen_width":1601,"browser":"chrome","browser_version":"103.0.0","mobile":false,"os":"Windows 10","vsync_rate":61.29,"participant_id":"MAX_3","trial_duration":587},{"rt":1063,"stimulus":"stimuli/Delboeuf_str1.8_diff0.8.png","response":"arrowleft","screen":"Trial","block":"Delboeuf","correct_response":"arrowleft","trial_type":"image-keyboard-response","trial_index":23,"time_elapsed":52967,"internal_node_id":"0.0-4.0-2.0-1.8","screen_height":764,"screen_width":1601,"browser":"chrome","browser_version":"103.0.0","mobile":false,"os":"Windows 10","vsync_rate":61.29,"participant_id":"MAX_3","prestimulus_duration":607,"correct":true,"type":"Delboeuf","illusion_strength":1.8,"illusion_difference":0.8,"block_number":1,"trial_number":9},{"rt":null,"stimulus":"<div style=\"font-size:60px;\">+</div>","response":null,"screen":"fixation","trial_type":"html-keyboard-response","trial_index":24,"time_elapsed":53238,"internal_node_id":"0.0-4.0-2.0-0.9","screen_height":764,"screen_width":1601,"browser":"chrome","browser_version":"103.0.0","mobile":false,"os":"Windows 10","vsync_rate":61.29,"participant_id":"MAX_3","trial_duration":261},{"rt":1232,"stimulus":"stimuli/Delboeuf_str-1.08_diff0.08.png","response":"arrowleft","screen":"Trial","block":"Delboeuf","correct_response":"arrowleft","trial_type":"image-keyboard-response","trial_index":25,"time_elapsed":54470,"internal_node_id":"0.0-4.0-2.0-1.9","screen_height":764,"screen_width":1601,"browser":"chrome","browser_version":"103.0.0","mobile":false,"os":"Windows 10","vsync_rate":61.29,"participant_id":"MAX_3","prestimulus_duration":271,"correct":true,"type":"Delboeuf","illusion_strength":-1.08,"illusion_difference":0.08,"block_number":1,"trial_number":10},{"rt":null,"stimulus":"<div style=\"font-size:60px;\">+</div>","response":null,"screen":"fixation","trial_type":"html-keyboard-response","trial_index":26,"time_elapsed":54954,"internal_node_id":"0.0-4.0-2.0-0.10","screen_height":764,"screen_width":1601,"browser":"chrome","browser_version":"103.0.0","mobile":false,"os":"Windows 10","vsync_rate":61.29,"participant_id":"MAX_3","trial_duration":480},{"rt":1117,"stimulus":"stimuli/Delboeuf_str1.08_diff0.08.png","response":"arrowright","screen":"Trial","block":"Delboeuf","correct_response":"arrowleft","trial_type":"image-keyboard-response","trial_index":27,"time_elapsed":56096,"internal_node_id":"0.0-4.0-2.0-1.10","screen_height":764,"screen_width":1601,"browser":"chrome","browser_version":"103.0.0","mobile":false,"os":"Windows 10","vsync_rate":61.29,"participant_id":"MAX_3","prestimulus_duration":484,"correct":false,"type":"Delboeuf","illusion_strength":1.0799999999999998,"illusion_difference":0.08,"block_number":1,"trial_number":11},{"rt":null,"stimulus":"<div style=\"font-size:60px;\">+</div>","response":null,"screen":"fixation","trial_type":"html-keyboard-response","trial_index":28,"time_elapsed":57028,"internal_node_id":"0.0-4.0-2.0-0.11","screen_height":764,"screen_width":1601,"browser":"chrome","browser_version":"103.0.0","mobile":false,"os":"Windows 10","vsync_rate":61.29,"participant_id":"MAX_3","trial_duration":914},{"rt":777,"stimulus":"stimuli/Delboeuf_str-1.8_diff-0.35.png","response":"arrowright","screen":"Trial","block":"Delboeuf","correct_response":"arrowright","trial_type":"image-keyboard-response","trial_index":29,"time_elapsed":57806,"internal_node_id":"0.0-4.0-2.0-1.11","screen_height":764,"screen_width":1601,"browser":"chrome","browser_version":"103.0.0","mobile":false,"os":"Windows 10","vsync_rate":61.29,"participant_id":"MAX_3","prestimulus_duration":932,"correct":true,"type":"Delboeuf","illusion_strength":-1.8,"illusion_difference":-0.35000000000000003,"block_number":1,"trial_number":12},{"rt":null,"stimulus":"<div style=\"font-size:60px;\">+</div>","response":null,"screen":"fixation","trial_type":"html-keyboard-response","trial_index":30,"time_elapsed":58262,"internal_node_id":"0.0-4.0-2.0-0.12","screen_height":764,"screen_width":1601,"browser":"chrome","browser_version":"103.0.0","mobile":false,"os":"Windows 10","vsync_rate":61.29,"participant_id":"MAX_3","trial_duration":446},{"rt":688,"stimulus":"stimuli/Delboeuf_str-1.8_diff-0.8.png","response":"arrowright","screen":"Trial","block":"Delboeuf","correct_response":"arrowright","trial_type":"image-keyboard-response","trial_index":31,"time_elapsed":58953,"internal_node_id":"0.0-4.0-2.0-1.12","screen_height":764,"screen_width":1601,"browser":"chrome","browser_version":"103.0.0","mobile":false,"os":"Windows 10","vsync_rate":61.29,"participant_id":"MAX_3","prestimulus_duration":456,"correct":true,"type":"Delboeuf","illusion_strength":-1.8,"illusion_difference":-0.8,"block_number":1,"trial_number":13},{"rt":null,"stimulus":"<div style=\"font-size:60px;\">+</div>","response":null,"screen":"fixation","trial_type":"html-keyboard-response","trial_index":32,"time_elapsed":59430,"internal_node_id":"0.0-4.0-2.0-0.13","screen_height":764,"screen_width":1601,"browser":"chrome","browser_version":"103.0.0","mobile":false,"os":"Windows 10","vsync_rate":61.29,"participant_id":"MAX_3","trial_duration":470},{"rt":673,"stimulus":"stimuli/Delboeuf_str-1.08_diff0.8.png","response":"arrowleft","screen":"Trial","block":"Delboeuf","correct_response":"arrowleft","trial_type":"image-keyboard-response","trial_index":33,"time_elapsed":60105,"internal_node_id":"0.0-4.0-2.0-1.13","screen_height":764,"screen_width":1601,"browser":"chrome","browser_version":"103.0.0","mobile":false,"os":"Windows 10","vsync_rate":61.29,"participant_id":"MAX_3","prestimulus_duration":477,"correct":true,"type":"Delboeuf","illusion_strength":-1.08,"illusion_difference":0.8,"block_number":1,"trial_number":14},{"rt":null,"stimulus":"<div style=\"font-size:60px;\">+</div>","response":null,"screen":"fixation","trial_type":"html-keyboard-response","trial_index":34,"time_elapsed":61077,"internal_node_id":"0.0-4.0-2.0-0.14","screen_height":764,"screen_width":1601,"browser":"chrome","browser_version":"103.0.0","mobile":false,"os":"Windows 10","vsync_rate":61.29,"participant_id":"MAX_3","trial_duration":956},{"rt":1575,"stimulus":"stimuli/Delboeuf_str1.08_diff0.35.png","response":"arrowright","screen":"Trial","block":"Delboeuf","correct_response":"arrowleft","trial_type":"image-keyboard-response","trial_index":35,"time_elapsed":62654,"internal_node_id":"0.0-4.0-2.0-1.14","screen_height":764,"screen_width":1601,"browser":"chrome","browser_version":"103.0.0","mobile":false,"os":"Windows 10","vsync_rate":61.29,"participant_id":"MAX_3","prestimulus_duration":972,"correct":false,"type":"Delboeuf","illusion_strength":1.0799999999999998,"illusion_difference":0.35000000000000003,"block_number":1,"trial_number":15},{"rt":null,"stimulus":"<div style=\"font-size:60px;\">+</div>","response":null,"screen":"fixation","trial_type":"html-keyboard-response","trial_index":36,"time_elapsed":63515,"internal_node_id":"0.0-4.0-2.0-0.15","screen_height":764,"screen_width":1601,"browser":"chrome","browser_version":"103.0.0","mobile":false,"os":"Windows 10","vsync_rate":61.29,"participant_id":"MAX_3","trial_duration":845},{"rt":1063,"stimulus":"stimuli/Delboeuf_str1.8_diff0.08.png","response":"arrowright","screen":"Trial","block":"Delboeuf","correct_response":"arrowleft","trial_type":"image-keyboard-response","trial_index":37,"time_elapsed":64579,"internal_node_id":"0.0-4.0-2.0-1.15","screen_height":764,"screen_width":1601,"browser":"chrome","browser_version":"103.0.0","mobile":false,"os":"Windows 10","vsync_rate":61.29,"participant_id":"MAX_3","prestimulus_duration":861,"correct":false,"type":"Delboeuf","illusion_strength":1.8,"illusion_difference":0.08,"block_number":1,"trial_number":16},{"rt":null,"stimulus":"<div style=\"font-size:60px;\">+</div>","response":null,"screen":"fixation","trial_type":"html-keyboard-response","trial_index":38,"time_elapsed":65168,"internal_node_id":"0.0-4.0-2.0-0.16","screen_height":764,"screen_width":1601,"browser":"chrome","browser_version":"103.0.0","mobile":false,"os":"Windows 10","vsync_rate":61.29,"participant_id":"MAX_3","trial_duration":580},{"rt":909,"stimulus":"stimuli/Delboeuf_str1.08_diff-0.8.png","response":"arrowright","screen":"Trial","block":"Delboeuf","correct_response":"arrowright","trial_type":"image-keyboard-response","trial_index":39,"time_elapsed":66078,"internal_node_id":"0.0-4.0-2.0-1.16","screen_height":764,"screen_width":1601,"browser":"chrome","browser_version":"103.0.0","mobile":false,"os":"Windows 10","vsync_rate":61.29,"participant_id":"MAX_3","prestimulus_duration":589,"correct":true,"type":"Delboeuf","illusion_strength":1.0799999999999998,"illusion_difference":-0.8,"block_number":1,"trial_number":17},{"rt":null,"stimulus":"<div style=\"font-size:60px;\">+</div>","response":null,"screen":"fixation","trial_type":"html-keyboard-response","trial_index":40,"time_elapsed":66827,"internal_node_id":"0.0-4.0-2.0-0.17","screen_height":764,"screen_width":1601,"browser":"chrome","browser_version":"103.0.0","mobile":false,"os":"Windows 10","vsync_rate":61.29,"participant_id":"MAX_3","trial_duration":747},{"rt":860,"stimulus":"stimuli/Delboeuf_str0.36_diff0.08.png","response":"arrowleft","screen":"Trial","block":"Delboeuf","correct_response":"arrowleft","trial_type":"image-keyboard-response","trial_index":41,"time_elapsed":67688,"internal_node_id":"0.0-4.0-2.0-1.17","screen_height":764,"screen_width":1601,"browser":"chrome","browser_version":"103.0.0","mobile":false,"os":"Windows 10","vsync_rate":61.29,"participant_id":"MAX_3","prestimulus_duration":749,"correct":true,"type":"Delboeuf","illusion_strength":0.3600000000000001,"illusion_difference":0.08,"block_number":1,"trial_number":18},{"rt":null,"stimulus":"<div style=\"font-size:60px;\">+</div>","response":null,"screen":"fixation","trial_type":"html-keyboard-response","trial_index":42,"time_elapsed":68352,"internal_node_id":"0.0-4.0-2.0-0.18","screen_height":764,"screen_width":1601,"browser":"chrome","browser_version":"103.0.0","mobile":false,"os":"Windows 10","vsync_rate":61.29,"participant_id":"MAX_3","trial_duration":650},{"rt":748,"stimulus":"stimuli/Delboeuf_str-0.36_diff-0.8.png","response":"arrowright","screen":"Trial","block":"Delboeuf","correct_response":"arrowright","trial_type":"image-keyboard-response","trial_index":43,"time_elapsed":69102,"internal_node_id":"0.0-4.0-2.0-1.18","screen_height":764,"screen_width":1601,"browser":"chrome","browser_version":"103.0.0","mobile":false,"os":"Windows 10","vsync_rate":61.29,"participant_id":"MAX_3","prestimulus_duration":664,"correct":true,"type":"Delboeuf","illusion_strength":-0.3600000000000001,"illusion_difference":-0.8,"block_number":1,"trial_number":19},{"rt":null,"stimulus":"<div style=\"font-size:60px;\">+</div>","response":null,"screen":"fixation","trial_type":"html-keyboard-response","trial_index":44,"time_elapsed":69464,"internal_node_id":"0.0-4.0-2.0-0.19","screen_height":764,"screen_width":1601,"browser":"chrome","browser_version":"103.0.0","mobile":false,"os":"Windows 10","vsync_rate":61.29,"participant_id":"MAX_3","trial_duration":349},{"rt":814,"stimulus":"stimuli/Delboeuf_str-1.8_diff-0.08.png","response":"arrowright","screen":"Trial","block":"Delboeuf","correct_response":"arrowright","trial_type":"image-keyboard-response","trial_index":45,"time_elapsed":70281,"internal_node_id":"0.0-4.0-2.0-1.19","screen_height":764,"screen_width":1601,"browser":"chrome","browser_version":"103.0.0","mobile":false,"os":"Windows 10","vsync_rate":61.29,"participant_id":"MAX_3","prestimulus_duration":362,"correct":true,"type":"Delboeuf","illusion_strength":-1.8,"illusion_difference":-0.08,"block_number":1,"trial_number":20},{"rt":null,"stimulus":"<div style=\"font-size:60px;\">+</div>","response":null,"screen":"fixation","trial_type":"html-keyboard-response","trial_index":46,"time_elapsed":70993,"internal_node_id":"0.0-4.0-2.0-0.20","screen_height":764,"screen_width":1601,"browser":"chrome","browser_version":"103.0.0","mobile":false,"os":"Windows 10","vsync_rate":61.29,"participant_id":"MAX_3","trial_duration":699},{"rt":988,"stimulus":"stimuli/Delboeuf_str-1.08_diff-0.08.png","response":"arrowleft","screen":"Trial","block":"Delboeuf","correct_response":"arrowright","trial_type":"image-keyboard-response","trial_index":47,"time_elapsed":71982,"internal_node_id":"0.0-4.0-2.0-1.20","screen_height":764,"screen_width":1601,"browser":"chrome","browser_version":"103.0.0","mobile":false,"os":"Windows 10","vsync_rate":61.29,"participant_id":"MAX_3","prestimulus_duration":712,"correct":false,"type":"Delboeuf","illusion_strength":-1.08,"illusion_difference":-0.08,"block_number":1,"trial_number":21},{"rt":null,"stimulus":"<div style=\"font-size:60px;\">+</div>","response":null,"screen":"fixation","trial_type":"html-keyboard-response","trial_index":48,"time_elapsed":72511,"internal_node_id":"0.0-4.0-2.0-0.21","screen_height":764,"screen_width":1601,"browser":"chrome","browser_version":"103.0.0","mobile":false,"os":"Windows 10","vsync_rate":61.29,"participant_id":"MAX_3","trial_duration":525},{"rt":727,"stimulus":"stimuli/Delboeuf_str-0.36_diff0.8.png","response":"arrowleft","screen":"Trial","block":"Delboeuf","correct_response":"arrowleft","trial_type":"image-keyboard-response","trial_index":49,"time_elapsed":73238,"internal_node_id":"0.0-4.0-2.0-1.21","screen_height":764,"screen_width":1601,"browser":"chrome","browser_version":"103.0.0","mobile":false,"os":"Windows 10","vsync_rate":61.29,"participant_id":"MAX_3","prestimulus_duration":529,"correct":true,"type":"Delboeuf","illusion_strength":-0.3600000000000001,"illusion_difference":0.8,"block_number":1,"trial_number":22},{"rt":null,"stimulus":"<div style=\"font-size:60px;\">+</div>","response":null,"screen":"fixation","trial_type":"html-keyboard-response","trial_index":50,"time_elapsed":74069,"internal_node_id":"0.0-4.0-2.0-0.22","screen_height":764,"screen_width":1601,"browser":"chrome","browser_version":"103.0.0","mobile":false,"os":"Windows 10","vsync_rate":61.29,"participant_id":"MAX_3","trial_duration":828},{"rt":715,"stimulus":"stimuli/Delboeuf_str-1.08_diff-0.35.png","response":"arrowright","screen":"Trial","block":"Delboeuf","correct_response":"arrowright","trial_type":"image-keyboard-response","trial_index":51,"time_elapsed":74785,"internal_node_id":"0.0-4.0-2.0-1.22","screen_height":764,"screen_width":1601,"browser":"chrome","browser_version":"103.0.0","mobile":false,"os":"Windows 10","vsync_rate":61.29,"participant_id":"MAX_3","prestimulus_duration":831,"correct":true,"type":"Delboeuf","illusion_strength":-1.08,"illusion_difference":-0.35000000000000003,"block_number":1,"trial_number":23},{"rt":null,"stimulus":"<div style=\"font-size:60px;\">+</div>","response":null,"screen":"fixation","trial_type":"html-keyboard-response","trial_index":52,"time_elapsed":75311,"internal_node_id":"0.0-4.0-2.0-0.23","screen_height":764,"screen_width":1601,"browser":"chrome","browser_version":"103.0.0","mobile":false,"os":"Windows 10","vsync_rate":61.29,"participant_id":"MAX_3","trial_duration":511},{"rt":919,"stimulus":"stimuli/Delboeuf_str-0.36_diff-0.08.png","response":"arrowright","screen":"Trial","block":"Delboeuf","correct_response":"arrowright","trial_type":"image-keyboard-response","trial_index":53,"time_elapsed":76230,"internal_node_id":"0.0-4.0-2.0-1.23","screen_height":764,"screen_width":1601,"browser":"chrome","browser_version":"103.0.0","mobile":false,"os":"Windows 10","vsync_rate":61.29,"participant_id":"MAX_3","prestimulus_duration":526,"correct":true,"type":"Delboeuf","illusion_strength":-0.3600000000000001,"illusion_difference":-0.08,"block_number":1,"trial_number":24},{"rt":null,"stimulus":"<div style=\"font-size:60px;\">+</div>","response":null,"screen":"fixation","trial_type":"html-keyboard-response","trial_index":54,"time_elapsed":76761,"internal_node_id":"0.0-4.0-2.0-0.24","screen_height":764,"screen_width":1601,"browser":"chrome","browser_version":"103.0.0","mobile":false,"os":"Windows 10","vsync_rate":61.29,"participant_id":"MAX_3","trial_duration":524},{"rt":747,"stimulus":"stimuli/Delboeuf_str-1.8_diff0.35.png","response":"arrowleft","screen":"Trial","block":"Delboeuf","correct_response":"arrowleft","trial_type":"image-keyboard-response","trial_index":55,"time_elapsed":77510,"internal_node_id":"0.0-4.0-2.0-1.24","screen_height":764,"screen_width":1601,"browser":"chrome","browser_version":"103.0.0","mobile":false,"os":"Windows 10","vsync_rate":61.29,"participant_id":"MAX_3","prestimulus_duration":531,"correct":true,"type":"Delboeuf","illusion_strength":-1.8,"illusion_difference":0.35000000000000003,"block_number":1,"trial_number":25},{"rt":null,"stimulus":"<div style=\"font-size:60px;\">+</div>","response":null,"screen":"fixation","trial_type":"html-keyboard-response","trial_index":56,"time_elapsed":78336,"internal_node_id":"0.0-4.0-2.0-0.25","screen_height":764,"screen_width":1601,"browser":"chrome","browser_version":"103.0.0","mobile":false,"os":"Windows 10","vsync_rate":61.29,"participant_id":"MAX_3","trial_duration":824},{"rt":747,"stimulus":"stimuli/Delboeuf_str0.36_diff-0.08.png","response":"arrowleft","screen":"Trial","block":"Delboeuf","correct_response":"arrowright","trial_type":"image-keyboard-response","trial_index":57,"time_elapsed":79086,"internal_node_id":"0.0-4.0-2.0-1.25","screen_height":764,"screen_width":1601,"browser":"chrome","browser_version":"103.0.0","mobile":false,"os":"Windows 10","vsync_rate":61.29,"participant_id":"MAX_3","prestimulus_duration":826,"correct":false,"type":"Delboeuf","illusion_strength":0.3600000000000001,"illusion_difference":-0.08,"block_number":1,"trial_number":26},{"rt":null,"stimulus":"<div style=\"font-size:60px;\">+</div>","response":null,"screen":"fixation","trial_type":"html-keyboard-response","trial_index":58,"time_elapsed":79483,"internal_node_id":"0.0-4.0-2.0-0.26","screen_height":764,"screen_width":1601,"browser":"chrome","browser_version":"103.0.0","mobile":false,"os":"Windows 10","vsync_rate":61.29,"participant_id":"MAX_3","trial_duration":383},{"rt":834,"stimulus":"stimuli/Delboeuf_str1.8_diff-0.08.png","response":"arrowleft","screen":"Trial","block":"Delboeuf","correct_response":"arrowright","trial_type":"image-keyboard-response","trial_index":59,"time_elapsed":80317,"internal_node_id":"0.0-4.0-2.0-1.26","screen_height":764,"screen_width":1601,"browser":"chrome","browser_version":"103.0.0","mobile":false,"os":"Windows 10","vsync_rate":61.29,"participant_id":"MAX_3","prestimulus_duration":397,"correct":false,"type":"Delboeuf","illusion_strength":1.8,"illusion_difference":-0.08,"block_number":1,"trial_number":27},{"rt":null,"stimulus":"<div style=\"font-size:60px;\">+</div>","response":null,"screen":"fixation","trial_type":"html-keyboard-response","trial_index":60,"time_elapsed":81097,"internal_node_id":"0.0-4.0-2.0-0.27","screen_height":764,"screen_width":1601,"browser":"chrome","browser_version":"103.0.0","mobile":false,"os":"Windows 10","vsync_rate":61.29,"participant_id":"MAX_3","trial_duration":775},{"rt":724,"stimulus":"stimuli/Delboeuf_str-1.08_diff0.35.png","response":"arrowleft","screen":"Trial","block":"Delboeuf","correct_response":"arrowleft","trial_type":"image-keyboard-response","trial_index":61,"time_elapsed":81822,"internal_node_id":"0.0-4.0-2.0-1.27","screen_height":764,"screen_width":1601,"browser":"chrome","browser_version":"103.0.0","mobile":false,"os":"Windows 10","vsync_rate":61.29,"participant_id":"MAX_3","prestimulus_duration":780,"correct":true,"type":"Delboeuf","illusion_strength":-1.08,"illusion_difference":0.35000000000000003,"block_number":1,"trial_number":28},{"rt":null,"stimulus":"<div style=\"font-size:60px;\">+</div>","response":null,"screen":"fixation","trial_type":"html-keyboard-response","trial_index":62,"time_elapsed":82428,"internal_node_id":"0.0-4.0-2.0-0.28","screen_height":764,"screen_width":1601,"browser":"chrome","browser_version":"103.0.0","mobile":false,"os":"Windows 10","vsync_rate":61.29,"participant_id":"MAX_3","trial_duration":601},{"rt":752,"stimulus":"stimuli/Delboeuf_str-0.36_diff0.08.png","response":"arrowleft","screen":"Trial","block":"Delboeuf","correct_response":"arrowleft","trial_type":"image-keyboard-response","trial_index":63,"time_elapsed":83182,"internal_node_id":"0.0-4.0-2.0-1.28","screen_height":764,"screen_width":1601,"browser":"chrome","browser_version":"103.0.0","mobile":false,"os":"Windows 10","vsync_rate":61.29,"participant_id":"MAX_3","prestimulus_duration":606,"correct":true,"type":"Delboeuf","illusion_strength":-0.3600000000000001,"illusion_difference":0.08,"block_number":1,"trial_number":29},{"rt":null,"stimulus":"<div style=\"font-size:60px;\">+</div>","response":null,"screen":"fixation","trial_type":"html-keyboard-response","trial_index":64,"time_elapsed":83538,"internal_node_id":"0.0-4.0-2.0-0.29","screen_height":764,"screen_width":1601,"browser":"chrome","browser_version":"103.0.0","mobile":false,"os":"Windows 10","vsync_rate":61.29,"participant_id":"MAX_3","trial_duration":347},{"rt":796,"stimulus":"stimuli/Delboeuf_str0.36_diff0.8.png","response":"arrowleft","screen":"Trial","block":"Delboeuf","correct_response":"arrowleft","trial_type":"image-keyboard-response","trial_index":65,"time_elapsed":84337,"internal_node_id":"0.0-4.0-2.0-1.29","screen_height":764,"screen_width":1601,"browser":"chrome","browser_version":"103.0.0","mobile":false,"os":"Windows 10","vsync_rate":61.29,"participant_id":"MAX_3","prestimulus_duration":356,"correct":true,"type":"Delboeuf","illusion_strength":0.3600000000000001,"illusion_difference":0.8,"block_number":1,"trial_number":30},{"rt":null,"stimulus":"<div style=\"font-size:60px;\">+</div>","response":null,"screen":"fixation","trial_type":"html-keyboard-response","trial_index":66,"time_elapsed":85035,"internal_node_id":"0.0-4.0-2.0-0.30","screen_height":764,"screen_width":1601,"browser":"chrome","browser_version":"103.0.0","mobile":false,"os":"Windows 10","vsync_rate":61.29,"participant_id":"MAX_3","trial_duration":683},{"rt":788,"stimulus":"stimuli/Delboeuf_str1.8_diff-0.8.png","response":"arrowleft","screen":"Trial","block":"Delboeuf","correct_response":"arrowright","trial_type":"image-keyboard-response","trial_index":67,"time_elapsed":85824,"internal_node_id":"0.0-4.0-2.0-1.30","screen_height":764,"screen_width":1601,"browser":"chrome","browser_version":"103.0.0","mobile":false,"os":"Windows 10","vsync_rate":61.29,"participant_id":"MAX_3","prestimulus_duration":698,"correct":false,"type":"Delboeuf","illusion_strength":1.8,"illusion_difference":-0.8,"block_number":1,"trial_number":31},{"rt":null,"stimulus":"<div style=\"font-size:60px;\">+</div>","response":null,"screen":"fixation","trial_type":"html-keyboard-response","trial_index":68,"time_elapsed":86816,"internal_node_id":"0.0-4.0-2.0-0.31","screen_height":764,"screen_width":1601,"browser":"chrome","browser_version":"103.0.0","mobile":false,"os":"Windows 10","vsync_rate":61.29,"participant_id":"MAX_3","trial_duration":976},{"rt":837,"stimulus":"stimuli/Delboeuf_str0.36_diff0.35.png","response":"arrowleft","screen":"Trial","block":"Delboeuf","correct_response":"arrowleft","trial_type":"image-keyboard-response","trial_index":69,"time_elapsed":87656,"internal_node_id":"0.0-4.0-2.0-1.31","screen_height":764,"screen_width":1601,"browser":"chrome","browser_version":"103.0.0","mobile":false,"os":"Windows 10","vsync_rate":61.29,"participant_id":"MAX_3","prestimulus_duration":992,"correct":true,"type":"Delboeuf","illusion_strength":0.3600000000000001,"illusion_difference":0.35000000000000003,"block_number":1,"trial_number":32},{"rt":null,"stimulus":"<div style=\"font-size:60px;\">+</div>","response":null,"screen":"fixation","trial_type":"html-keyboard-response","trial_index":70,"time_elapsed":87944,"internal_node_id":"0.0-4.0-2.0-0.32","screen_height":764,"screen_width":1601,"browser":"chrome","browser_version":"103.0.0","mobile":false,"os":"Windows 10","vsync_rate":61.29,"participant_id":"MAX_3","trial_duration":273},{"rt":990,"stimulus":"stimuli/Delboeuf_str1.08_diff-0.35.png","response":"arrowleft","screen":"Trial","block":"Delboeuf","correct_response":"arrowright","trial_type":"image-keyboard-response","trial_index":71,"time_elapsed":88936,"internal_node_id":"0.0-4.0-2.0-1.32","screen_height":764,"screen_width":1601,"browser":"chrome","browser_version":"103.0.0","mobile":false,"os":"Windows 10","vsync_rate":61.29,"participant_id":"MAX_3","prestimulus_duration":288,"correct":false,"type":"Delboeuf","illusion_strength":1.0799999999999998,"illusion_difference":-0.35000000000000003,"block_number":1,"trial_number":33},{"rt":null,"stimulus":"<div style=\"font-size:60px;\">+</div>","response":null,"screen":"fixation","trial_type":"html-keyboard-response","trial_index":72,"time_elapsed":89483,"internal_node_id":"0.0-4.0-2.0-0.33","screen_height":764,"screen_width":1601,"browser":"chrome","browser_version":"103.0.0","mobile":false,"os":"Windows 10","vsync_rate":61.29,"participant_id":"MAX_3","trial_duration":539},{"rt":808,"stimulus":"stimuli/Delboeuf_str-0.36_diff-0.35.png","response":"arrowright","screen":"Trial","block":"Delboeuf","correct_response":"arrowright","trial_type":"image-keyboard-response","trial_index":73,"time_elapsed":90293,"internal_node_id":"0.0-4.0-2.0-1.33","screen_height":764,"screen_width":1601,"browser":"chrome","browser_version":"103.0.0","mobile":false,"os":"Windows 10","vsync_rate":61.29,"participant_id":"MAX_3","prestimulus_duration":547,"correct":true,"type":"Delboeuf","illusion_strength":-0.3600000000000001,"illusion_difference":-0.35000000000000003,"block_number":1,"trial_number":34},{"rt":null,"stimulus":"<div style=\"font-size:60px;\">+</div>","response":null,"screen":"fixation","trial_type":"html-keyboard-response","trial_index":74,"time_elapsed":90813,"internal_node_id":"0.0-4.0-2.0-0.34","screen_height":764,"screen_width":1601,"browser":"chrome","browser_version":"103.0.0","mobile":false,"os":"Windows 10","vsync_rate":61.29,"participant_id":"MAX_3","trial_duration":516},{"rt":792,"stimulus":"stimuli/Delboeuf_str-1.8_diff0.08.png","response":"arrowleft","screen":"Trial","block":"Delboeuf","correct_response":"arrowleft","trial_type":"image-keyboard-response","trial_index":75,"time_elapsed":91608,"internal_node_id":"0.0-4.0-2.0-1.34","screen_height":764,"screen_width":1601,"browser":"chrome","browser_version":"103.0.0","mobile":false,"os":"Windows 10","vsync_rate":61.29,"participant_id":"MAX_3","prestimulus_duration":520,"correct":true,"type":"Delboeuf","illusion_strength":-1.8,"illusion_difference":0.08,"block_number":1,"trial_number":35},{"rt":null,"stimulus":"<div style=\"font-size:60px;\">+</div>","response":null,"screen":"fixation","trial_type":"html-keyboard-response","trial_index":76,"time_elapsed":92576,"internal_node_id":"0.0-4.0-2.0-0.35","screen_height":764,"screen_width":1601,"browser":"chrome","browser_version":"103.0.0","mobile":false,"os":"Windows 10","vsync_rate":61.29,"participant_id":"MAX_3","trial_duration":950},{"rt":836,"stimulus":"stimuli/Delboeuf_str-1.08_diff-0.8.png","response":"arrowright","screen":"Trial","block":"Delboeuf","correct_response":"arrowright","trial_type":"image-keyboard-response","trial_index":77,"time_elapsed":93414,"internal_node_id":"0.0-4.0-2.0-1.35","screen_height":764,"screen_width":1601,"browser":"chrome","browser_version":"103.0.0","mobile":false,"os":"Windows 10","vsync_rate":61.29,"participant_id":"MAX_3","prestimulus_duration":968,"correct":true,"type":"Delboeuf","illusion_strength":-1.08,"illusion_difference":-0.8,"block_number":1,"trial_number":36},{"rt":3152,"stimulus":"<p>Your score for this illusion is <p style=\"color: black; font-size: 48px; font-weight: bold;\">3902</p><hr><hr><p>Can you do better in the next illusion?</p>","response":0,"screen":"block_results","trial_type":"html-button-response","trial_index":78,"time_elapsed":96571,"internal_node_id":"0.0-4.0-3.0","screen_height":764,"screen_width":1601,"browser":"chrome","browser_version":"103.0.0","mobile":false,"os":"Windows 10","vsync_rate":61.29,"participant_id":"MAX_3"},{"success":true,"timeout":false,"failed_images":[],"failed_audio":[],"failed_video":[],"trial_type":"preload","trial_index":79,"time_elapsed":96572,"internal_node_id":"0.0-5.0-0.0","screen_height":764,"screen_width":1601,"browser":"chrome","browser_version":"103.0.0","mobile":false,"os":"Windows 10","vsync_rate":61.29,"participant_id":"MAX_3"},{"rt":9912,"stimulus":"<p><b>Part 2</b></p><p>In this part, two vertical grey rectangles will appear side by side.</p><p>Your task is to tell <b>which rectangle is of a lighter color</b>, as fast as you can, and without making errors.</p><p>Don't get distracted by the background color!</p><p>Press <b>the LEFT or the RIGHT arrow</b> to indicate which <b>side has the lighter grey rectangle.</b></p><div style='float: center'><img src='utils/stimuli_demo/White_Demo.png' height='300'></img><p><img src='utils/answer/answer_leftright_keyboard.PNG' height='150'></img></p><p class='small'>In this example, the correct answer is the <b>LEFT arrow</b>.</p></div><p>Are you ready? <b>Press ENTER to start</b></p>","response":"enter","trial_type":"html-keyboard-response","trial_index":80,"time_elapsed":106486,"internal_node_id":"0.0-5.0-1.0","screen_height":764,"screen_width":1601,"browser":"chrome","browser_version":"103.0.0","mobile":false,"os":"Windows 10","vsync_rate":61.29,"participant_id":"MAX_3"},{"rt":null,"stimulus":"<div style=\"font-size:60px;\">+</div>","response":null,"screen":"fixation","trial_type":"html-keyboard-response","trial_index":81,"time_elapsed":107398,"internal_node_id":"0.0-5.0-2.0-0.0","screen_height":764,"screen_width":1601,"browser":"chrome","browser_version":"103.0.0","mobile":false,"os":"Windows 10","vsync_rate":61.29,"participant_id":"MAX_3","trial_duration":395},{"rt":655,"stimulus":"stimuli/White_str21.0_diff-10.62.png","response":"arrowleft","screen":"Trial","block":"White","correct_response":"arrowright","trial_type":"image-keyboard-response","trial_index":82,"time_elapsed":108053,"internal_node_id":"0.0-5.0-2.0-1.0","screen_height":764,"screen_width":1601,"browser":"chrome","browser_version":"103.0.0","mobile":false,"os":"Windows 10","vsync_rate":61.29,"participant_id":"MAX_3","prestimulus_duration":912,"correct":false,"type":"White","illusion_strength":21,"illusion_difference":-10.625,"block_number":2,"trial_number":1},{"rt":null,"stimulus":"<div style=\"font-size:60px;\">+</div>","response":null,"screen":"fixation","trial_type":"html-keyboard-response","trial_index":83,"time_elapsed":108396,"internal_node_id":"0.0-5.0-2.0-0.1","screen_height":764,"screen_width":1601,"browser":"chrome","browser_version":"103.0.0","mobile":false,"os":"Windows 10","vsync_rate":61.29,"participant_id":"MAX_3","trial_duration":330},{"rt":673,"stimulus":"stimuli/White_str7.0_diff-20.0.png","response":"arrowright","screen":"Trial","block":"White","correct_response":"arrowright","trial_type":"image-keyboard-response","trial_index":84,"time_elapsed":109071,"internal_node_id":"0.0-5.0-2.0-1.1","screen_height":764,"screen_width":1601,"browser":"chrome","browser_version":"103.0.0","mobile":false,"os":"Windows 10","vsync_rate":61.29,"participant_id":"MAX_3","prestimulus_duration":343,"correct":true,"type":"White","illusion_strength":7,"illusion_difference":-20,"block_number":2,"trial_number":2},{"rt":null,"stimulus":"<div style=\"font-size:60px;\">+</div>","response":null,"screen":"fixation","trial_type":"html-keyboard-response","trial_index":85,"time_elapsed":109892,"internal_node_id":"0.0-5.0-2.0-0.2","screen_height":764,"screen_width":1601,"browser":"chrome","browser_version":"103.0.0","mobile":false,"os":"Windows 10","vsync_rate":61.29,"participant_id":"MAX_3","trial_duration":814},{"rt":705,"stimulus":"stimuli/White_str35.0_diff10.62.png","response":"arrowright","screen":"Trial","block":"White","correct_response":"arrowleft","trial_type":"image-keyboard-response","trial_index":86,"time_elapsed":110598,"internal_node_id":"0.0-5.0-2.0-1.2","screen_height":764,"screen_width":1601,"browser":"chrome","browser_version":"103.0.0","mobile":false,"os":"Windows 10","vsync_rate":61.29,"participant_id":"MAX_3","prestimulus_duration":821,"correct":false,"type":"White","illusion_strength":35,"illusion_difference":10.625,"block_number":2,"trial_number":3},{"rt":null,"stimulus":"<div style=\"font-size:60px;\">+</div>","response":null,"screen":"fixation","trial_type":"html-keyboard-response","trial_index":87,"time_elapsed":111584,"internal_node_id":"0.0-5.0-2.0-0.3","screen_height":764,"screen_width":1601,"browser":"chrome","browser_version":"103.0.0","mobile":false,"os":"Windows 10","vsync_rate":61.29,"participant_id":"MAX_3","trial_duration":974},{"rt":672,"stimulus":"stimuli/White_str-7.0_diff20.0.png","response":"arrowleft","screen":"Trial","block":"White","correct_response":"arrowleft","trial_type":"image-keyboard-response","trial_index":88,"time_elapsed":112256,"internal_node_id":"0.0-5.0-2.0-1.3","screen_height":764,"screen_width":1601,"browser":"chrome","browser_version":"103.0.0","mobile":false,"os":"Windows 10","vsync_rate":61.29,"participant_id":"MAX_3","prestimulus_duration":986,"correct":true,"type":"White","illusion_strength":-7,"illusion_difference":20,"block_number":2,"trial_number":4},{"rt":null,"stimulus":"<div style=\"font-size:60px;\">+</div>","response":null,"screen":"fixation","trial_type":"html-keyboard-response","trial_index":89,"time_elapsed":113096,"internal_node_id":"0.0-5.0-2.0-0.4","screen_height":764,"screen_width":1601,"browser":"chrome","browser_version":"103.0.0","mobile":false,"os":"Windows 10","vsync_rate":61.29,"participant_id":"MAX_3","trial_duration":827},{"rt":676,"stimulus":"stimuli/White_str-35.0_diff-5.0.png","response":"arrowright","screen":"Trial","block":"White","correct_response":"arrowright","trial_type":"image-keyboard-response","trial_index":90,"time_elapsed":113773,"internal_node_id":"0.0-5.0-2.0-1.4","screen_height":764,"screen_width":1601,"browser":"chrome","browser_version":"103.0.0","mobile":false,"os":"Windows 10","vsync_rate":61.29,"participant_id":"MAX_3","prestimulus_duration":840,"correct":true,"type":"White","illusion_strength":-35,"illusion_difference":-5,"block_number":2,"trial_number":5},{"rt":null,"stimulus":"<div style=\"font-size:60px;\">+</div>","response":null,"screen":"fixation","trial_type":"html-keyboard-response","trial_index":91,"time_elapsed":114160,"internal_node_id":"0.0-5.0-2.0-0.5","screen_height":764,"screen_width":1601,"browser":"chrome","browser_version":"103.0.0","mobile":false,"os":"Windows 10","vsync_rate":61.29,"participant_id":"MAX_3","trial_duration":376},{"rt":989,"stimulus":"stimuli/White_str21.0_diff-20.0.png","response":"arrowleft","screen":"Trial","block":"White","correct_response":"arrowright","trial_type":"image-keyboard-response","trial_index":92,"time_elapsed":115152,"internal_node_id":"0.0-5.0-2.0-1.5","screen_height":764,"screen_width":1601,"browser":"chrome","browser_version":"103.0.0","mobile":false,"os":"Windows 10","vsync_rate":61.29,"participant_id":"MAX_3","prestimulus_duration":387,"correct":false,"type":"White","illusion_strength":21,"illusion_difference":-20,"block_number":2,"trial_number":6},{"rt":null,"stimulus":"<div style=\"font-size:60px;\">+</div>","response":null,"screen":"fixation","trial_type":"html-keyboard-response","trial_index":93,"time_elapsed":116059,"internal_node_id":"0.0-5.0-2.0-0.6","screen_height":764,"screen_width":1601,"browser":"chrome","browser_version":"103.0.0","mobile":false,"os":"Windows 10","vsync_rate":61.29,"participant_id":"MAX_3","trial_duration":898},{"rt":667,"stimulus":"stimuli/White_str-21.0_diff-20.0.png","response":"arrowright","screen":"Trial","block":"White","correct_response":"arrowright","trial_type":"image-keyboard-response","trial_index":94,"time_elapsed":116727,"internal_node_id":"0.0-5.0-2.0-1.6","screen_height":764,"screen_width":1601,"browser":"chrome","browser_version":"103.0.0","mobile":false,"os":"Windows 10","vsync_rate":61.29,"participant_id":"MAX_3","prestimulus_duration":907,"correct":true,"type":"White","illusion_strength":-21,"illusion_difference":-20,"block_number":2,"trial_number":7},{"rt":null,"stimulus":"<div style=\"font-size:60px;\">+</div>","response":null,"screen":"fixation","trial_type":"html-keyboard-response","trial_index":95,"time_elapsed":117428,"internal_node_id":"0.0-5.0-2.0-0.7","screen_height":764,"screen_width":1601,"browser":"chrome","browser_version":"103.0.0","mobile":false,"os":"Windows 10","vsync_rate":61.29,"participant_id":"MAX_3","trial_duration":685},{"rt":641,"stimulus":"stimuli/White_str-7.0_diff5.0.png","response":"arrowleft","screen":"Trial","block":"White","correct_response":"arrowleft","trial_type":"image-keyboard-response","trial_index":96,"time_elapsed":118070,"internal_node_id":"0.0-5.0-2.0-1.7","screen_height":764,"screen_width":1601,"browser":"chrome","browser_version":"103.0.0","mobile":false,"os":"Windows 10","vsync_rate":61.29,"participant_id":"MAX_3","prestimulus_duration":701,"correct":true,"type":"White","illusion_strength":-7,"illusion_difference":5,"block_number":2,"trial_number":8},{"rt":null,"stimulus":"<div style=\"font-size:60px;\">+</div>","response":null,"screen":"fixation","trial_type":"html-keyboard-response","trial_index":97,"time_elapsed":118356,"internal_node_id":"0.0-5.0-2.0-0.8","screen_height":764,"screen_width":1601,"browser":"chrome","browser_version":"103.0.0","mobile":false,"os":"Windows 10","vsync_rate":61.29,"participant_id":"MAX_3","trial_duration":281},{"rt":657,"stimulus":"stimuli/White_str-35.0_diff20.0.png","response":"arrowleft","screen":"Trial","block":"White","correct_response":"arrowleft","trial_type":"image-keyboard-response","trial_index":98,"time_elapsed":119014,"internal_node_id":"0.0-5.0-2.0-1.8","screen_height":764,"screen_width":1601,"browser":"chrome","browser_version":"103.0.0","mobile":false,"os":"Windows 10","vsync_rate":61.29,"participant_id":"MAX_3","prestimulus_duration":286,"correct":true,"type":"White","illusion_strength":-35,"illusion_difference":20,"block_number":2,"trial_number":9},{"rt":null,"stimulus":"<div style=\"font-size:60px;\">+</div>","response":null,"screen":"fixation","trial_type":"html-keyboard-response","trial_index":99,"time_elapsed":119505,"internal_node_id":"0.0-5.0-2.0-0.9","screen_height":764,"screen_width":1601,"browser":"chrome","browser_version":"103.0.0","mobile":false,"os":"Windows 10","vsync_rate":61.29,"participant_id":"MAX_3","trial_duration":476},{"rt":668,"stimulus":"stimuli/White_str21.0_diff-5.0.png","response":"arrowleft","screen":"Trial","block":"White","correct_response":"arrowright","trial_type":"image-keyboard-response","trial_index":100,"time_elapsed":120174,"internal_node_id":"0.0-5.0-2.0-1.9","screen_height":764,"screen_width":1601,"browser":"chrome","browser_version":"103.0.0","mobile":false,"os":"Windows 10","vsync_rate":61.29,"participant_id":"MAX_3","prestimulus_duration":491,"correct":false,"type":"White","illusion_strength":21,"illusion_difference":-5,"block_number":2,"trial_number":10},{"rt":null,"stimulus":"<div style=\"font-size:60px;\">+</div>","response":null,"screen":"fixation","trial_type":"html-keyboard-response","trial_index":101,"time_elapsed":120595,"internal_node_id":"0.0-5.0-2.0-0.10","screen_height":764,"screen_width":1601,"browser":"chrome","browser_version":"103.0.0","mobile":false,"os":"Windows 10","vsync_rate":61.29,"participant_id":"MAX_3","trial_duration":416},{"rt":707,"stimulus":"stimuli/White_str-35.0_diff10.62.png","response":"arrowleft","screen":"Trial","block":"White","correct_response":"arrowleft","trial_type":"image-keyboard-response","trial_index":102,"time_elapsed":121302,"internal_node_id":"0.0-5.0-2.0-1.10","screen_height":764,"screen_width":1601,"browser":"chrome","browser_version":"103.0.0","mobile":false,"os":"Windows 10","vsync_rate":61.29,"participant_id":"MAX_3","prestimulus_duration":421,"correct":true,"type":"White","illusion_strength":-35,"illusion_difference":10.625,"block_number":2,"trial_number":11},{"rt":null,"stimulus":"<div style=\"font-size:60px;\">+</div>","response":null,"screen":"fixation","trial_type":"html-keyboard-response","trial_index":103,"time_elapsed":121954,"internal_node_id":"0.0-5.0-2.0-0.11","screen_height":764,"screen_width":1601,"browser":"chrome","browser_version":"103.0.0","mobile":false,"os":"Windows 10","vsync_rate":61.29,"participant_id":"MAX_3","trial_duration":636},{"rt":986,"stimulus":"stimuli/White_str7.0_diff-5.0.png","response":"arrowleft","screen":"Trial","block":"White","correct_response":"arrowright","trial_type":"image-keyboard-response","trial_index":104,"time_elapsed":122942,"internal_node_id":"0.0-5.0-2.0-1.11","screen_height":764,"screen_width":1601,"browser":"chrome","browser_version":"103.0.0","mobile":false,"os":"Windows 10","vsync_rate":61.29,"participant_id":"MAX_3","prestimulus_duration":652,"correct":false,"type":"White","illusion_strength":7,"illusion_difference":-5,"block_number":2,"trial_number":12},{"rt":null,"stimulus":"<div style=\"font-size:60px;\">+</div>","response":null,"screen":"fixation","trial_type":"html-keyboard-response","trial_index":105,"time_elapsed":123203,"internal_node_id":"0.0-5.0-2.0-0.12","screen_height":764,"screen_width":1601,"browser":"chrome","browser_version":"103.0.0","mobile":false,"os":"Windows 10","vsync_rate":61.29,"participant_id":"MAX_3","trial_duration":260},{"rt":909,"stimulus":"stimuli/White_str7.0_diff10.62.png","response":"arrowleft","screen":"Trial","block":"White","correct_response":"arrowleft","trial_type":"image-keyboard-response","trial_index":106,"time_elapsed":124114,"internal_node_id":"0.0-5.0-2.0-1.12","screen_height":764,"screen_width":1601,"browser":"chrome","browser_version":"103.0.0","mobile":false,"os":"Windows 10","vsync_rate":61.29,"participant_id":"MAX_3","prestimulus_duration":261,"correct":true,"type":"White","illusion_strength":7,"illusion_difference":10.625,"block_number":2,"trial_number":13},{"rt":null,"stimulus":"<div style=\"font-size:60px;\">+</div>","response":null,"screen":"fixation","trial_type":"html-keyboard-response","trial_index":107,"time_elapsed":125078,"internal_node_id":"0.0-5.0-2.0-0.13","screen_height":764,"screen_width":1601,"browser":"chrome","browser_version":"103.0.0","mobile":false,"os":"Windows 10","vsync_rate":61.29,"participant_id":"MAX_3","trial_duration":951},{"rt":1047,"stimulus":"stimuli/White_str7.0_diff5.0.png","response":"arrowright","screen":"Trial","block":"White","correct_response":"arrowleft","trial_type":"image-keyboard-response","trial_index":108,"time_elapsed":126126,"internal_node_id":"0.0-5.0-2.0-1.13","screen_height":764,"screen_width":1601,"browser":"chrome","browser_version":"103.0.0","mobile":false,"os":"Windows 10","vsync_rate":61.29,"participant_id":"MAX_3","prestimulus_duration":964,"correct":false,"type":"White","illusion_strength":7,"illusion_difference":5,"block_number":2,"trial_number":14},{"rt":null,"stimulus":"<div style=\"font-size:60px;\">+</div>","response":null,"screen":"fixation","trial_type":"html-keyboard-response","trial_index":109,"time_elapsed":126475,"internal_node_id":"0.0-5.0-2.0-0.14","screen_height":764,"screen_width":1601,"browser":"chrome","browser_version":"103.0.0","mobile":false,"os":"Windows 10","vsync_rate":61.29,"participant_id":"MAX_3","trial_duration":333},{"rt":715,"stimulus":"stimuli/White_str-7.0_diff-5.0.png","response":"arrowright","screen":"Trial","block":"White","correct_response":"arrowright","trial_type":"image-keyboard-response","trial_index":110,"time_elapsed":127190,"internal_node_id":"0.0-5.0-2.0-1.14","screen_height":764,"screen_width":1601,"browser":"chrome","browser_version":"103.0.0","mobile":false,"os":"Windows 10","vsync_rate":61.29,"participant_id":"MAX_3","prestimulus_duration":349,"correct":true,"type":"White","illusion_strength":-7,"illusion_difference":-5,"block_number":2,"trial_number":15},{"rt":null,"stimulus":"<div style=\"font-size:60px;\">+</div>","response":null,"screen":"fixation","trial_type":"html-keyboard-response","trial_index":111,"time_elapsed":127582,"internal_node_id":"0.0-5.0-2.0-0.15","screen_height":764,"screen_width":1601,"browser":"chrome","browser_version":"103.0.0","mobile":false,"os":"Windows 10","vsync_rate":61.29,"participant_id":"MAX_3","trial_duration":377},{"rt":655,"stimulus":"stimuli/White_str-21.0_diff-5.0.png","response":"arrowright","screen":"Trial","block":"White","correct_response":"arrowright","trial_type":"image-keyboard-response","trial_index":112,"time_elapsed":128238,"internal_node_id":"0.0-5.0-2.0-1.15","screen_height":764,"screen_width":1601,"browser":"chrome","browser_version":"103.0.0","mobile":false,"os":"Windows 10","vsync_rate":61.29,"participant_id":"MAX_3","prestimulus_duration":392,"correct":true,"type":"White","illusion_strength":-21,"illusion_difference":-5,"block_number":2,"trial_number":16},{"rt":null,"stimulus":"<div style=\"font-size:60px;\">+</div>","response":null,"screen":"fixation","trial_type":"html-keyboard-response","trial_index":113,"time_elapsed":128536,"internal_node_id":"0.0-5.0-2.0-0.16","screen_height":764,"screen_width":1601,"browser":"chrome","browser_version":"103.0.0","mobile":false,"os":"Windows 10","vsync_rate":61.29,"participant_id":"MAX_3","trial_duration":295},{"rt":677,"stimulus":"stimuli/White_str-21.0_diff20.0.png","response":"arrowleft","screen":"Trial","block":"White","correct_response":"arrowleft","trial_type":"image-keyboard-response","trial_index":114,"time_elapsed":129214,"internal_node_id":"0.0-5.0-2.0-1.16","screen_height":764,"screen_width":1601,"browser":"chrome","browser_version":"103.0.0","mobile":false,"os":"Windows 10","vsync_rate":61.29,"participant_id":"MAX_3","prestimulus_duration":298,"correct":true,"type":"White","illusion_strength":-21,"illusion_difference":20,"block_number":2,"trial_number":17},{"rt":null,"stimulus":"<div style=\"font-size:60px;\">+</div>","response":null,"screen":"fixation","trial_type":"html-keyboard-response","trial_index":115,"time_elapsed":129944,"internal_node_id":"0.0-5.0-2.0-0.17","screen_height":764,"screen_width":1601,"browser":"chrome","browser_version":"103.0.0","mobile":false,"os":"Windows 10","vsync_rate":61.29,"participant_id":"MAX_3","trial_duration":722},{"rt":677,"stimulus":"stimuli/White_str35.0_diff20.0.png","response":"arrowright","screen":"Trial","block":"White","correct_response":"arrowleft","trial_type":"image-keyboard-response","trial_index":116,"time_elapsed":130622,"internal_node_id":"0.0-5.0-2.0-1.17","screen_height":764,"screen_width":1601,"browser":"chrome","browser_version":"103.0.0","mobile":false,"os":"Windows 10","vsync_rate":61.29,"participant_id":"MAX_3","prestimulus_duration":730,"correct":false,"type":"White","illusion_strength":35,"illusion_difference":20,"block_number":2,"trial_number":18},{"rt":null,"stimulus":"<div style=\"font-size:60px;\">+</div>","response":null,"screen":"fixation","trial_type":"html-keyboard-response","trial_index":117,"time_elapsed":131426,"internal_node_id":"0.0-5.0-2.0-0.18","screen_height":764,"screen_width":1601,"browser":"chrome","browser_version":"103.0.0","mobile":false,"os":"Windows 10","vsync_rate":61.29,"participant_id":"MAX_3","trial_duration":792},{"rt":756,"stimulus":"stimuli/White_str35.0_diff-5.0.png","response":"arrowleft","screen":"Trial","block":"White","correct_response":"arrowright","trial_type":"image-keyboard-response","trial_index":118,"time_elapsed":132182,"internal_node_id":"0.0-5.0-2.0-1.18","screen_height":764,"screen_width":1601,"browser":"chrome","browser_version":"103.0.0","mobile":false,"os":"Windows 10","vsync_rate":61.29,"participant_id":"MAX_3","prestimulus_duration":804,"correct":false,"type":"White","illusion_strength":35,"illusion_difference":-5,"block_number":2,"trial_number":19},{"rt":null,"stimulus":"<div style=\"font-size:60px;\">+</div>","response":null,"screen":"fixation","trial_type":"html-keyboard-response","trial_index":119,"time_elapsed":132929,"internal_node_id":"0.0-5.0-2.0-0.19","screen_height":764,"screen_width":1601,"browser":"chrome","browser_version":"103.0.0","mobile":false,"os":"Windows 10","vsync_rate":61.29,"participant_id":"MAX_3","trial_duration":732},{"rt":708,"stimulus":"stimuli/White_str-7.0_diff-10.62.png","response":"arrowright","screen":"Trial","block":"White","correct_response":"arrowright","trial_type":"image-keyboard-response","trial_index":120,"time_elapsed":133638,"internal_node_id":"0.0-5.0-2.0-1.19","screen_height":764,"screen_width":1601,"browser":"chrome","browser_version":"103.0.0","mobile":false,"os":"Windows 10","vsync_rate":61.29,"participant_id":"MAX_3","prestimulus_duration":747,"correct":true,"type":"White","illusion_strength":-7,"illusion_difference":-10.625,"block_number":2,"trial_number":20},{"rt":null,"stimulus":"<div style=\"font-size:60px;\">+</div>","response":null,"screen":"fixation","trial_type":"html-keyboard-response","trial_index":121,"time_elapsed":133890,"internal_node_id":"0.0-5.0-2.0-0.20","screen_height":764,"screen_width":1601,"browser":"chrome","browser_version":"103.0.0","mobile":false,"os":"Windows 10","vsync_rate":61.29,"participant_id":"MAX_3","trial_duration":251},{"rt":764,"stimulus":"stimuli/White_str-7.0_diff10.62.png","response":"arrowleft","screen":"Trial","block":"White","correct_response":"arrowleft","trial_type":"image-keyboard-response","trial_index":122,"time_elapsed":134654,"internal_node_id":"0.0-5.0-2.0-1.20","screen_height":764,"screen_width":1601,"browser":"chrome","browser_version":"103.0.0","mobile":false,"os":"Windows 10","vsync_rate":61.29,"participant_id":"MAX_3","prestimulus_duration":252,"correct":true,"type":"White","illusion_strength":-7,"illusion_difference":10.625,"block_number":2,"trial_number":21},{"rt":null,"stimulus":"<div style=\"font-size:60px;\">+</div>","response":null,"screen":"fixation","trial_type":"html-keyboard-response","trial_index":123,"time_elapsed":135427,"internal_node_id":"0.0-5.0-2.0-0.21","screen_height":764,"screen_width":1601,"browser":"chrome","browser_version":"103.0.0","mobile":false,"os":"Windows 10","vsync_rate":61.29,"participant_id":"MAX_3","trial_duration":758},{"rt":778,"stimulus":"stimuli/White_str35.0_diff-20.0.png","response":"arrowright","screen":"Trial","block":"White","correct_response":"arrowright","trial_type":"image-keyboard-response","trial_index":124,"time_elapsed":136206,"internal_node_id":"0.0-5.0-2.0-1.21","screen_height":764,"screen_width":1601,"browser":"chrome","browser_version":"103.0.0","mobile":false,"os":"Windows 10","vsync_rate":61.29,"participant_id":"MAX_3","prestimulus_duration":773,"correct":true,"type":"White","illusion_strength":35,"illusion_difference":-20,"block_number":2,"trial_number":22},{"rt":null,"stimulus":"<div style=\"font-size:60px;\">+</div>","response":null,"screen":"fixation","trial_type":"html-keyboard-response","trial_index":125,"time_elapsed":136492,"internal_node_id":"0.0-5.0-2.0-0.22","screen_height":764,"screen_width":1601,"browser":"chrome","browser_version":"103.0.0","mobile":false,"os":"Windows 10","vsync_rate":61.29,"participant_id":"MAX_3","trial_duration":271},{"rt":714,"stimulus":"stimuli/White_str-21.0_diff10.62.png","response":"arrowleft","screen":"Trial","block":"White","correct_response":"arrowleft","trial_type":"image-keyboard-response","trial_index":126,"time_elapsed":137206,"internal_node_id":"0.0-5.0-2.0-1.22","screen_height":764,"screen_width":1601,"browser":"chrome","browser_version":"103.0.0","mobile":false,"os":"Windows 10","vsync_rate":61.29,"participant_id":"MAX_3","prestimulus_duration":286,"correct":true,"type":"White","illusion_strength":-21,"illusion_difference":10.625,"block_number":2,"trial_number":23},{"rt":null,"stimulus":"<div style=\"font-size:60px;\">+</div>","response":null,"screen":"fixation","trial_type":"html-keyboard-response","trial_index":127,"time_elapsed":137931,"internal_node_id":"0.0-5.0-2.0-0.23","screen_height":764,"screen_width":1601,"browser":"chrome","browser_version":"103.0.0","mobile":false,"os":"Windows 10","vsync_rate":61.29,"participant_id":"MAX_3","trial_duration":720},{"rt":634,"stimulus":"stimuli/White_str-21.0_diff-10.62.png","response":"arrowright","screen":"Trial","block":"White","correct_response":"arrowright","trial_type":"image-keyboard-response","trial_index":128,"time_elapsed":138566,"internal_node_id":"0.0-5.0-2.0-1.23","screen_height":764,"screen_width":1601,"browser":"chrome","browser_version":"103.0.0","mobile":false,"os":"Windows 10","vsync_rate":61.29,"participant_id":"MAX_3","prestimulus_duration":725,"correct":true,"type":"White","illusion_strength":-21,"illusion_difference":-10.625,"block_number":2,"trial_number":24},{"rt":null,"stimulus":"<div style=\"font-size:60px;\">+</div>","response":null,"screen":"fixation","trial_type":"html-keyboard-response","trial_index":129,"time_elapsed":139115,"internal_node_id":"0.0-5.0-2.0-0.24","screen_height":764,"screen_width":1601,"browser":"chrome","browser_version":"103.0.0","mobile":false,"os":"Windows 10","vsync_rate":61.29,"participant_id":"MAX_3","trial_duration":543},{"rt":691,"stimulus":"stimuli/White_str7.0_diff-10.62.png","response":"arrowright","screen":"Trial","block":"White","correct_response":"arrowright","trial_type":"image-keyboard-response","trial_index":130,"time_elapsed":139806,"internal_node_id":"0.0-5.0-2.0-1.24","screen_height":764,"screen_width":1601,"browser":"chrome","browser_version":"103.0.0","mobile":false,"os":"Windows 10","vsync_rate":61.29,"participant_id":"MAX_3","prestimulus_duration":549,"correct":true,"type":"White","illusion_strength":7,"illusion_difference":-10.625,"block_number":2,"trial_number":25},{"rt":null,"stimulus":"<div style=\"font-size:60px;\">+</div>","response":null,"screen":"fixation","trial_type":"html-keyboard-response","trial_index":131,"time_elapsed":140238,"internal_node_id":"0.0-5.0-2.0-0.25","screen_height":764,"screen_width":1601,"browser":"chrome","browser_version":"103.0.0","mobile":false,"os":"Windows 10","vsync_rate":61.29,"participant_id":"MAX_3","trial_duration":431},{"rt":703,"stimulus":"stimuli/White_str35.0_diff-10.62.png","response":"arrowleft","screen":"Trial","block":"White","correct_response":"arrowright","trial_type":"image-keyboard-response","trial_index":132,"time_elapsed":140942,"internal_node_id":"0.0-5.0-2.0-1.25","screen_height":764,"screen_width":1601,"browser":"chrome","browser_version":"103.0.0","mobile":false,"os":"Windows 10","vsync_rate":61.29,"participant_id":"MAX_3","prestimulus_duration":432,"correct":false,"type":"White","illusion_strength":35,"illusion_difference":-10.625,"block_number":2,"trial_number":26},{"rt":null,"stimulus":"<div style=\"font-size:60px;\">+</div>","response":null,"screen":"fixation","trial_type":"html-keyboard-response","trial_index":133,"time_elapsed":141367,"internal_node_id":"0.0-5.0-2.0-0.26","screen_height":764,"screen_width":1601,"browser":"chrome","browser_version":"103.0.0","mobile":false,"os":"Windows 10","vsync_rate":61.29,"participant_id":"MAX_3","trial_duration":410},{"rt":654,"stimulus":"stimuli/White_str-21.0_diff5.0.png","response":"arrowleft","screen":"Trial","block":"White","correct_response":"arrowleft","trial_type":"image-keyboard-response","trial_index":134,"time_elapsed":142022,"internal_node_id":"0.0-5.0-2.0-1.26","screen_height":764,"screen_width":1601,"browser":"chrome","browser_version":"103.0.0","mobile":false,"os":"Windows 10","vsync_rate":61.29,"participant_id":"MAX_3","prestimulus_duration":425,"correct":true,"type":"White","illusion_strength":-21,"illusion_difference":5,"block_number":2,"trial_number":27},{"rt":null,"stimulus":"<div style=\"font-size:60px;\">+</div>","response":null,"screen":"fixation","trial_type":"html-keyboard-response","trial_index":135,"time_elapsed":142613,"internal_node_id":"0.0-5.0-2.0-0.27","screen_height":764,"screen_width":1601,"browser":"chrome","browser_version":"103.0.0","mobile":false,"os":"Windows 10","vsync_rate":61.29,"participant_id":"MAX_3","trial_duration":586},{"rt":624,"stimulus":"stimuli/White_str-7.0_diff-20.0.png","response":"arrowright","screen":"Trial","block":"White","correct_response":"arrowright","trial_type":"image-keyboard-response","trial_index":136,"time_elapsed":143238,"internal_node_id":"0.0-5.0-2.0-1.27","screen_height":764,"screen_width":1601,"browser":"chrome","browser_version":"103.0.0","mobile":false,"os":"Windows 10","vsync_rate":61.29,"participant_id":"MAX_3","prestimulus_duration":591,"correct":true,"type":"White","illusion_strength":-7,"illusion_difference":-20,"block_number":2,"trial_number":28},{"rt":null,"stimulus":"<div style=\"font-size:60px;\">+</div>","response":null,"screen":"fixation","trial_type":"html-keyboard-response","trial_index":137,"time_elapsed":143504,"internal_node_id":"0.0-5.0-2.0-0.28","screen_height":764,"screen_width":1601,"browser":"chrome","browser_version":"103.0.0","mobile":false,"os":"Windows 10","vsync_rate":61.29,"participant_id":"MAX_3","trial_duration":259},{"rt":702,"stimulus":"stimuli/White_str-35.0_diff-10.62.png","response":"arrowright","screen":"Trial","block":"White","correct_response":"arrowright","trial_type":"image-keyboard-response","trial_index":138,"time_elapsed":144206,"internal_node_id":"0.0-5.0-2.0-1.28","screen_height":764,"screen_width":1601,"browser":"chrome","browser_version":"103.0.0","mobile":false,"os":"Windows 10","vsync_rate":61.29,"participant_id":"MAX_3","prestimulus_duration":266,"correct":true,"type":"White","illusion_strength":-35,"illusion_difference":-10.625,"block_number":2,"trial_number":29},{"rt":null,"stimulus":"<div style=\"font-size:60px;\">+</div>","response":null,"screen":"fixation","trial_type":"html-keyboard-response","trial_index":139,"time_elapsed":144848,"internal_node_id":"0.0-5.0-2.0-0.29","screen_height":764,"screen_width":1601,"browser":"chrome","browser_version":"103.0.0","mobile":false,"os":"Windows 10","vsync_rate":61.29,"participant_id":"MAX_3","trial_duration":638},{"rt":677,"stimulus":"stimuli/White_str35.0_diff5.0.png","response":"arrowright","screen":"Trial","block":"White","correct_response":"arrowleft","trial_type":"image-keyboard-response","trial_index":140,"time_elapsed":145526,"internal_node_id":"0.0-5.0-2.0-1.29","screen_height":764,"screen_width":1601,"browser":"chrome","browser_version":"103.0.0","mobile":false,"os":"Windows 10","vsync_rate":61.29,"participant_id":"MAX_3","prestimulus_duration":642,"correct":false,"type":"White","illusion_strength":35,"illusion_difference":5,"block_number":2,"trial_number":30},{"rt":null,"stimulus":"<div style=\"font-size:60px;\">+</div>","response":null,"screen":"fixation","trial_type":"html-keyboard-response","trial_index":141,"time_elapsed":146326,"internal_node_id":"0.0-5.0-2.0-0.30","screen_height":764,"screen_width":1601,"browser":"chrome","browser_version":"103.0.0","mobile":false,"os":"Windows 10","vsync_rate":61.29,"participant_id":"MAX_3","trial_duration":796},{"rt":960,"stimulus":"stimuli/White_str21.0_diff20.0.png","response":"arrowleft","screen":"Trial","block":"White","correct_response":"arrowleft","trial_type":"image-keyboard-response","trial_index":142,"time_elapsed":147287,"internal_node_id":"0.0-5.0-2.0-1.30","screen_height":764,"screen_width":1601,"browser":"chrome","browser_version":"103.0.0","mobile":false,"os":"Windows 10","vsync_rate":61.29,"participant_id":"MAX_3","prestimulus_duration":800,"correct":true,"type":"White","illusion_strength":21,"illusion_difference":20,"block_number":2,"trial_number":31},{"rt":null,"stimulus":"<div style=\"font-size:60px;\">+</div>","response":null,"screen":"fixation","trial_type":"html-keyboard-response","trial_index":143,"time_elapsed":147700,"internal_node_id":"0.0-5.0-2.0-0.31","screen_height":764,"screen_width":1601,"browser":"chrome","browser_version":"103.0.0","mobile":false,"os":"Windows 10","vsync_rate":61.29,"participant_id":"MAX_3","trial_duration":397},{"rt":716,"stimulus":"stimuli/White_str21.0_diff5.0.png","response":"arrowright","screen":"Trial","block":"White","correct_response":"arrowleft","trial_type":"image-keyboard-response","trial_index":144,"time_elapsed":148418,"internal_node_id":"0.0-5.0-2.0-1.31","screen_height":764,"screen_width":1601,"browser":"chrome","browser_version":"103.0.0","mobile":false,"os":"Windows 10","vsync_rate":61.29,"participant_id":"MAX_3","prestimulus_duration":413,"correct":false,"type":"White","illusion_strength":21,"illusion_difference":5,"block_number":2,"trial_number":32},{"rt":null,"stimulus":"<div style=\"font-size:60px;\">+</div>","response":null,"screen":"fixation","trial_type":"html-keyboard-response","trial_index":145,"time_elapsed":149310,"internal_node_id":"0.0-5.0-2.0-0.32","screen_height":764,"screen_width":1601,"browser":"chrome","browser_version":"103.0.0","mobile":false,"os":"Windows 10","vsync_rate":61.29,"participant_id":"MAX_3","trial_duration":884},{"rt":706,"stimulus":"stimuli/White_str21.0_diff10.62.png","response":"arrowright","screen":"Trial","block":"White","correct_response":"arrowleft","trial_type":"image-keyboard-response","trial_index":146,"time_elapsed":150017,"internal_node_id":"0.0-5.0-2.0-1.32","screen_height":764,"screen_width":1601,"browser":"chrome","browser_version":"103.0.0","mobile":false,"os":"Windows 10","vsync_rate":61.29,"participant_id":"MAX_3","prestimulus_duration":892,"correct":false,"type":"White","illusion_strength":21,"illusion_difference":10.625,"block_number":2,"trial_number":33},{"rt":null,"stimulus":"<div style=\"font-size:60px;\">+</div>","response":null,"screen":"fixation","trial_type":"html-keyboard-response","trial_index":147,"time_elapsed":150850,"internal_node_id":"0.0-5.0-2.0-0.33","screen_height":764,"screen_width":1601,"browser":"chrome","browser_version":"103.0.0","mobile":false,"os":"Windows 10","vsync_rate":61.29,"participant_id":"MAX_3","trial_duration":823},{"rt":820,"stimulus":"stimuli/White_str-35.0_diff-20.0.png","response":"arrowright","screen":"Trial","block":"White","correct_response":"arrowright","trial_type":"image-keyboard-response","trial_index":148,"time_elapsed":151672,"internal_node_id":"0.0-5.0-2.0-1.33","screen_height":764,"screen_width":1601,"browser":"chrome","browser_version":"103.0.0","mobile":false,"os":"Windows 10","vsync_rate":61.29,"participant_id":"MAX_3","prestimulus_duration":833,"correct":true,"type":"White","illusion_strength":-35,"illusion_difference":-20,"block_number":2,"trial_number":34},{"rt":null,"stimulus":"<div style=\"font-size:60px;\">+</div>","response":null,"screen":"fixation","trial_type":"html-keyboard-response","trial_index":149,"time_elapsed":152134,"internal_node_id":"0.0-5.0-2.0-0.34","screen_height":764,"screen_width":1601,"browser":"chrome","browser_version":"103.0.0","mobile":false,"os":"Windows 10","vsync_rate":61.29,"participant_id":"MAX_3","trial_duration":456},{"rt":656,"stimulus":"stimuli/White_str7.0_diff20.0.png","response":"arrowleft","screen":"Trial","block":"White","correct_response":"arrowleft","trial_type":"image-keyboard-response","trial_index":150,"time_elapsed":152792,"internal_node_id":"0.0-5.0-2.0-1.34","screen_height":764,"screen_width":1601,"browser":"chrome","browser_version":"103.0.0","mobile":false,"os":"Windows 10","vsync_rate":61.29,"participant_id":"MAX_3","prestimulus_duration":462,"correct":true,"type":"White","illusion_strength":7,"illusion_difference":20,"block_number":2,"trial_number":35},{"rt":null,"stimulus":"<div style=\"font-size:60px;\">+</div>","response":null,"screen":"fixation","trial_type":"html-keyboard-response","trial_index":151,"time_elapsed":153572,"internal_node_id":"0.0-5.0-2.0-0.35","screen_height":764,"screen_width":1601,"browser":"chrome","browser_version":"103.0.0","mobile":false,"os":"Windows 10","vsync_rate":61.29,"participant_id":"MAX_3","trial_duration":772},{"rt":706,"stimulus":"stimuli/White_str-35.0_diff5.0.png","response":"arrowleft","screen":"Trial","block":"White","correct_response":"arrowleft","trial_type":"image-keyboard-response","trial_index":152,"time_elapsed":154282,"internal_node_id":"0.0-5.0-2.0-1.35","screen_height":764,"screen_width":1601,"browser":"chrome","browser_version":"103.0.0","mobile":false,"os":"Windows 10","vsync_rate":61.29,"participant_id":"MAX_3","prestimulus_duration":780,"correct":true,"type":"White","illusion_strength":-35,"illusion_difference":5,"block_number":2,"trial_number":36},{"rt":2477,"stimulus":"<p>Your score for this illusion is <p style=\"color: black; font-size: 48px; font-weight: bold;\">3934</p><hr><hr><p>Can you do better in the next illusion?</p>","response":0,"screen":"block_results","trial_type":"html-button-response","trial_index":153,"time_elapsed":156771,"internal_node_id":"0.0-5.0-3.0","screen_height":764,"screen_width":1601,"browser":"chrome","browser_version":"103.0.0","mobile":false,"os":"Windows 10","vsync_rate":61.29,"participant_id":"MAX_3"},{"success":true,"timeout":false,"failed_images":[],"failed_audio":[],"failed_video":[],"trial_type":"preload","trial_index":154,"time_elapsed":156773,"internal_node_id":"0.0-6.0-0.0","screen_height":764,"screen_width":1601,"browser":"chrome","browser_version":"103.0.0","mobile":false,"os":"Windows 10","vsync_rate":61.29,"participant_id":"MAX_3"},{"rt":10993,"stimulus":"<p><b>Part 3</b></p><p>In this part, one vertical red line will appear in a square.</p><p>Your task is to tell towards <b>which direction</b> is the red line leaning, as fast as you can, and without making errors.</p><p>Don't get distracted by the black square!</p><p>Press <b>the LEFT or the RIGHT arrow</b> to indicate the <b>direction where the red line is leaning towards.</b></p><div style='float: center'><img src='utils/stimuli_demo/RodFrame_Demo.png' height='300'></img><p><img src='utils/answer/answer_leftright_keyboard.PNG' height='150'></img></p><p class='small'>In this example, the correct answer is the <b>LEFT arrow</b>.</p></div><p>Are you ready? <b>Press ENTER to start</b></p>","response":"enter","trial_type":"html-keyboard-response","trial_index":155,"time_elapsed":167767,"internal_node_id":"0.0-6.0-1.0","screen_height":764,"screen_width":1601,"browser":"chrome","browser_version":"103.0.0","mobile":false,"os":"Windows 10","vsync_rate":61.29,"participant_id":"MAX_3"},{"rt":null,"stimulus":"<div style=\"font-size:60px;\">+</div>","response":null,"screen":"fixation","trial_type":"html-keyboard-response","trial_index":156,"time_elapsed":168676,"internal_node_id":"0.0-6.0-2.0-0.0","screen_height":764,"screen_width":1601,"browser":"chrome","browser_version":"103.0.0","mobile":false,"os":"Windows 10","vsync_rate":61.29,"participant_id":"MAX_3","trial_duration":380},{"rt":713,"stimulus":"stimuli/RodFrame_str45.0_diff-10.0.png","response":"arrowleft","screen":"Trial","block":"RodFrame","correct_response":"arrowleft","trial_type":"image-keyboard-response","trial_index":157,"time_elapsed":169390,"internal_node_id":"0.0-6.0-2.0-1.0","screen_height":764,"screen_width":1601,"browser":"chrome","browser_version":"103.0.0","mobile":false,"os":"Windows 10","vsync_rate":61.29,"participant_id":"MAX_3","prestimulus_duration":909,"correct":true,"type":"RodFrame","illusion_strength":45,"illusion_difference":-10,"block_number":3,"trial_number":1},{"rt":null,"stimulus":"<div style=\"font-size:60px;\">+</div>","response":null,"screen":"fixation","trial_type":"html-keyboard-response","trial_index":158,"time_elapsed":169963,"internal_node_id":"0.0-6.0-2.0-0.1","screen_height":764,"screen_width":1601,"browser":"chrome","browser_version":"103.0.0","mobile":false,"os":"Windows 10","vsync_rate":61.29,"participant_id":"MAX_3","trial_duration":568},{"rt":651,"stimulus":"stimuli/RodFrame_str-9.0_diff3.78.png","response":"arrowright","screen":"Trial","block":"RodFrame","correct_response":"arrowright","trial_type":"image-keyboard-response","trial_index":159,"time_elapsed":170614,"internal_node_id":"0.0-6.0-2.0-1.1","screen_height":764,"screen_width":1601,"browser":"chrome","browser_version":"103.0.0","mobile":false,"os":"Windows 10","vsync_rate":61.29,"participant_id":"MAX_3","prestimulus_duration":573,"correct":true,"type":"RodFrame","illusion_strength":-9,"illusion_difference":3.7812499999999996,"block_number":3,"trial_number":2},{"rt":null,"stimulus":"<div style=\"font-size:60px;\">+</div>","response":null,"screen":"fixation","trial_type":"html-keyboard-response","trial_index":160,"time_elapsed":171068,"internal_node_id":"0.0-6.0-2.0-0.2","screen_height":764,"screen_width":1601,"browser":"chrome","browser_version":"103.0.0","mobile":false,"os":"Windows 10","vsync_rate":61.29,"participant_id":"MAX_3","trial_duration":451},{"rt":849,"stimulus":"stimuli/RodFrame_str-45.0_diff0.05.png","response":"arrowright","screen":"Trial","block":"RodFrame","correct_response":"arrowright","trial_type":"image-keyboard-response","trial_index":161,"time_elapsed":171918,"internal_node_id":"0.0-6.0-2.0-1.2","screen_height":764,"screen_width":1601,"browser":"chrome","browser_version":"103.0.0","mobile":false,"os":"Windows 10","vsync_rate":61.29,"participant_id":"MAX_3","prestimulus_duration":454,"correct":true,"type":"RodFrame","illusion_strength":-45,"illusion_difference":0.05,"block_number":3,"trial_number":3},{"rt":null,"stimulus":"<div style=\"font-size:60px;\">+</div>","response":null,"screen":"fixation","trial_type":"html-keyboard-response","trial_index":162,"time_elapsed":172694,"internal_node_id":"0.0-6.0-2.0-0.3","screen_height":764,"screen_width":1601,"browser":"chrome","browser_version":"103.0.0","mobile":false,"os":"Windows 10","vsync_rate":61.29,"participant_id":"MAX_3","trial_duration":772},{"rt":775,"stimulus":"stimuli/RodFrame_str-9.0_diff0.05.png","response":"arrowright","screen":"Trial","block":"RodFrame","correct_response":"arrowright","trial_type":"image-keyboard-response","trial_index":163,"time_elapsed":173470,"internal_node_id":"0.0-6.0-2.0-1.3","screen_height":764,"screen_width":1601,"browser":"chrome","browser_version":"103.0.0","mobile":false,"os":"Windows 10","vsync_rate":61.29,"participant_id":"MAX_3","prestimulus_duration":776,"correct":true,"type":"RodFrame","illusion_strength":-9,"illusion_difference":0.05,"block_number":3,"trial_number":4},{"rt":null,"stimulus":"<div style=\"font-size:60px;\">+</div>","response":null,"screen":"fixation","trial_type":"html-keyboard-response","trial_index":164,"time_elapsed":174455,"internal_node_id":"0.0-6.0-2.0-0.4","screen_height":764,"screen_width":1601,"browser":"chrome","browser_version":"103.0.0","mobile":false,"os":"Windows 10","vsync_rate":61.29,"participant_id":"MAX_3","trial_duration":972},{"rt":733,"stimulus":"stimuli/RodFrame_str-45.0_diff3.78.png","response":"arrowright","screen":"Trial","block":"RodFrame","correct_response":"arrowright","trial_type":"image-keyboard-response","trial_index":165,"time_elapsed":175190,"internal_node_id":"0.0-6.0-2.0-1.4","screen_height":764,"screen_width":1601,"browser":"chrome","browser_version":"103.0.0","mobile":false,"os":"Windows 10","vsync_rate":61.29,"participant_id":"MAX_3","prestimulus_duration":985,"correct":true,"type":"RodFrame","illusion_strength":-45,"illusion_difference":3.7812499999999996,"block_number":3,"trial_number":5},{"rt":null,"stimulus":"<div style=\"font-size:60px;\">+</div>","response":null,"screen":"fixation","trial_type":"html-keyboard-response","trial_index":166,"time_elapsed":176096,"internal_node_id":"0.0-6.0-2.0-0.5","screen_height":764,"screen_width":1601,"browser":"chrome","browser_version":"103.0.0","mobile":false,"os":"Windows 10","vsync_rate":61.29,"participant_id":"MAX_3","trial_duration":898},{"rt":716,"stimulus":"stimuli/RodFrame_str45.0_diff10.0.png","response":"arrowright","screen":"Trial","block":"RodFrame","correct_response":"arrowright","trial_type":"image-keyboard-response","trial_index":167,"time_elapsed":176814,"internal_node_id":"0.0-6.0-2.0-1.5","screen_height":764,"screen_width":1601,"browser":"chrome","browser_version":"103.0.0","mobile":false,"os":"Windows 10","vsync_rate":61.29,"participant_id":"MAX_3","prestimulus_duration":906,"correct":true,"type":"RodFrame","illusion_strength":45,"illusion_difference":10,"block_number":3,"trial_number":6},{"rt":null,"stimulus":"<div style=\"font-size:60px;\">+</div>","response":null,"screen":"fixation","trial_type":"html-keyboard-response","trial_index":168,"time_elapsed":177298,"internal_node_id":"0.0-6.0-2.0-0.6","screen_height":764,"screen_width":1601,"browser":"chrome","browser_version":"103.0.0","mobile":false,"os":"Windows 10","vsync_rate":61.29,"participant_id":"MAX_3","trial_duration":482},{"rt":724,"stimulus":"stimuli/RodFrame_str-9.0_diff-0.05.png","response":"arrowright","screen":"Trial","block":"RodFrame","correct_response":"arrowleft","trial_type":"image-keyboard-response","trial_index":169,"time_elapsed":178022,"internal_node_id":"0.0-6.0-2.0-1.6","screen_height":764,"screen_width":1601,"browser":"chrome","browser_version":"103.0.0","mobile":false,"os":"Windows 10","vsync_rate":61.29,"participant_id":"MAX_3","prestimulus_duration":484,"correct":false,"type":"RodFrame","illusion_strength":-9,"illusion_difference":-0.05,"block_number":3,"trial_number":7},{"rt":null,"stimulus":"<div style=\"font-size:60px;\">+</div>","response":null,"screen":"fixation","trial_type":"html-keyboard-response","trial_index":170,"time_elapsed":178409,"internal_node_id":"0.0-6.0-2.0-0.7","screen_height":764,"screen_width":1601,"browser":"chrome","browser_version":"103.0.0","mobile":false,"os":"Windows 10","vsync_rate":61.29,"participant_id":"MAX_3","trial_duration":384},{"rt":1076,"stimulus":"stimuli/RodFrame_str-45.0_diff-0.05.png","response":"arrowright","screen":"Trial","block":"RodFrame","correct_response":"arrowleft","trial_type":"image-keyboard-response","trial_index":171,"time_elapsed":179486,"internal_node_id":"0.0-6.0-2.0-1.7","screen_height":764,"screen_width":1601,"browser":"chrome","browser_version":"103.0.0","mobile":false,"os":"Windows 10","vsync_rate":61.29,"participant_id":"MAX_3","prestimulus_duration":387,"correct":false,"type":"RodFrame","illusion_strength":-45,"illusion_difference":-0.05,"block_number":3,"trial_number":8},{"rt":null,"stimulus":"<div style=\"font-size:60px;\">+</div>","response":null,"screen":"fixation","trial_type":"html-keyboard-response","trial_index":172,"time_elapsed":180483,"internal_node_id":"0.0-6.0-2.0-0.8","screen_height":764,"screen_width":1601,"browser":"chrome","browser_version":"103.0.0","mobile":false,"os":"Windows 10","vsync_rate":61.29,"participant_id":"MAX_3","trial_duration":983},{"rt":770,"stimulus":"stimuli/RodFrame_str27.0_diff-0.05.png","response":"arrowright","screen":"Trial","block":"RodFrame","correct_response":"arrowleft","trial_type":"image-keyboard-response","trial_index":173,"time_elapsed":181254,"internal_node_id":"0.0-6.0-2.0-1.8","screen_height":764,"screen_width":1601,"browser":"chrome","browser_version":"103.0.0","mobile":false,"os":"Windows 10","vsync_rate":61.29,"participant_id":"MAX_3","prestimulus_duration":997,"correct":false,"type":"RodFrame","illusion_strength":27,"illusion_difference":-0.05,"block_number":3,"trial_number":9},{"rt":null,"stimulus":"<div style=\"font-size:60px;\">+</div>","response":null,"screen":"fixation","trial_type":"html-keyboard-response","trial_index":174,"time_elapsed":181598,"internal_node_id":"0.0-6.0-2.0-0.9","screen_height":764,"screen_width":1601,"browser":"chrome","browser_version":"103.0.0","mobile":false,"os":"Windows 10","vsync_rate":61.29,"participant_id":"MAX_3","trial_duration":328},{"rt":999,"stimulus":"stimuli/RodFrame_str-9.0_diff-3.78.png","response":"arrowright","screen":"Trial","block":"RodFrame","correct_response":"arrowleft","trial_type":"image-keyboard-response","trial_index":175,"time_elapsed":182598,"internal_node_id":"0.0-6.0-2.0-1.9","screen_height":764,"screen_width":1601,"browser":"chrome","browser_version":"103.0.0","mobile":false,"os":"Windows 10","vsync_rate":61.29,"participant_id":"MAX_3","prestimulus_duration":344,"correct":false,"type":"RodFrame","illusion_strength":-9,"illusion_difference":-3.7812499999999996,"block_number":3,"trial_number":10},{"rt":null,"stimulus":"<div style=\"font-size:60px;\">+</div>","response":null,"screen":"fixation","trial_type":"html-keyboard-response","trial_index":176,"time_elapsed":183241,"internal_node_id":"0.0-6.0-2.0-0.10","screen_height":764,"screen_width":1601,"browser":"chrome","browser_version":"103.0.0","mobile":false,"os":"Windows 10","vsync_rate":61.29,"participant_id":"MAX_3","trial_duration":630},{"rt":943,"stimulus":"stimuli/RodFrame_str-45.0_diff-10.0.png","response":"arrowleft","screen":"Trial","block":"RodFrame","correct_response":"arrowleft","trial_type":"image-keyboard-response","trial_index":177,"time_elapsed":184185,"internal_node_id":"0.0-6.0-2.0-1.10","screen_height":764,"screen_width":1601,"browser":"chrome","browser_version":"103.0.0","mobile":false,"os":"Windows 10","vsync_rate":61.29,"participant_id":"MAX_3","prestimulus_duration":643,"correct":true,"type":"RodFrame","illusion_strength":-45,"illusion_difference":-10,"block_number":3,"trial_number":11},{"rt":null,"stimulus":"<div style=\"font-size:60px;\">+</div>","response":null,"screen":"fixation","trial_type":"html-keyboard-response","trial_index":178,"time_elapsed":184711,"internal_node_id":"0.0-6.0-2.0-0.11","screen_height":764,"screen_width":1601,"browser":"chrome","browser_version":"103.0.0","mobile":false,"os":"Windows 10","vsync_rate":61.29,"participant_id":"MAX_3","trial_duration":523},{"rt":869,"stimulus":"stimuli/RodFrame_str9.0_diff10.0.png","response":"arrowright","screen":"Trial","block":"RodFrame","correct_response":"arrowright","trial_type":"image-keyboard-response","trial_index":179,"time_elapsed":185582,"internal_node_id":"0.0-6.0-2.0-1.11","screen_height":764,"screen_width":1601,"browser":"chrome","browser_version":"103.0.0","mobile":false,"os":"Windows 10","vsync_rate":61.29,"participant_id":"MAX_3","prestimulus_duration":526,"correct":true,"type":"RodFrame","illusion_strength":9,"illusion_difference":10,"block_number":3,"trial_number":12},{"rt":null,"stimulus":"<div style=\"font-size:60px;\">+</div>","response":null,"screen":"fixation","trial_type":"html-keyboard-response","trial_index":180,"time_elapsed":186097,"internal_node_id":"0.0-6.0-2.0-0.12","screen_height":764,"screen_width":1601,"browser":"chrome","browser_version":"103.0.0","mobile":false,"os":"Windows 10","vsync_rate":61.29,"participant_id":"MAX_3","trial_duration":506},{"rt":741,"stimulus":"stimuli/RodFrame_str45.0_diff3.78.png","response":"arrowright","screen":"Trial","block":"RodFrame","correct_response":"arrowright","trial_type":"image-keyboard-response","trial_index":181,"time_elapsed":186839,"internal_node_id":"0.0-6.0-2.0-1.12","screen_height":764,"screen_width":1601,"browser":"chrome","browser_version":"103.0.0","mobile":false,"os":"Windows 10","vsync_rate":61.29,"participant_id":"MAX_3","prestimulus_duration":515,"correct":true,"type":"RodFrame","illusion_strength":45,"illusion_difference":3.7812499999999996,"block_number":3,"trial_number":13},{"rt":null,"stimulus":"<div style=\"font-size:60px;\">+</div>","response":null,"screen":"fixation","trial_type":"html-keyboard-response","trial_index":182,"time_elapsed":187391,"internal_node_id":"0.0-6.0-2.0-0.13","screen_height":764,"screen_width":1601,"browser":"chrome","browser_version":"103.0.0","mobile":false,"os":"Windows 10","vsync_rate":61.29,"participant_id":"MAX_3","trial_duration":549},{"rt":711,"stimulus":"stimuli/RodFrame_str-27.0_diff3.78.png","response":"arrowright","screen":"Trial","block":"RodFrame","correct_response":"arrowright","trial_type":"image-keyboard-response","trial_index":183,"time_elapsed":188102,"internal_node_id":"0.0-6.0-2.0-1.13","screen_height":764,"screen_width":1601,"browser":"chrome","browser_version":"103.0.0","mobile":false,"os":"Windows 10","vsync_rate":61.29,"participant_id":"MAX_3","prestimulus_duration":552,"correct":true,"type":"RodFrame","illusion_strength":-27,"illusion_difference":3.7812499999999996,"block_number":3,"trial_number":14},{"rt":null,"stimulus":"<div style=\"font-size:60px;\">+</div>","response":null,"screen":"fixation","trial_type":"html-keyboard-response","trial_index":184,"time_elapsed":188616,"internal_node_id":"0.0-6.0-2.0-0.14","screen_height":764,"screen_width":1601,"browser":"chrome","browser_version":"103.0.0","mobile":false,"os":"Windows 10","vsync_rate":61.29,"participant_id":"MAX_3","trial_duration":513},{"rt":686,"stimulus":"stimuli/RodFrame_str-27.0_diff10.0.png","response":"arrowright","screen":"Trial","block":"RodFrame","correct_response":"arrowright","trial_type":"image-keyboard-response","trial_index":185,"time_elapsed":189302,"internal_node_id":"0.0-6.0-2.0-1.14","screen_height":764,"screen_width":1601,"browser":"chrome","browser_version":"103.0.0","mobile":false,"os":"Windows 10","vsync_rate":61.29,"participant_id":"MAX_3","prestimulus_duration":514,"correct":true,"type":"RodFrame","illusion_strength":-27,"illusion_difference":10,"block_number":3,"trial_number":15},{"rt":null,"stimulus":"<div style=\"font-size:60px;\">+</div>","response":null,"screen":"fixation","trial_type":"html-keyboard-response","trial_index":186,"time_elapsed":189820,"internal_node_id":"0.0-6.0-2.0-0.15","screen_height":764,"screen_width":1601,"browser":"chrome","browser_version":"103.0.0","mobile":false,"os":"Windows 10","vsync_rate":61.29,"participant_id":"MAX_3","trial_duration":510},{"rt":786,"stimulus":"stimuli/RodFrame_str45.0_diff0.05.png","response":"arrowleft","screen":"Trial","block":"RodFrame","correct_response":"arrowright","trial_type":"image-keyboard-response","trial_index":187,"time_elapsed":190606,"internal_node_id":"0.0-6.0-2.0-1.15","screen_height":764,"screen_width":1601,"browser":"chrome","browser_version":"103.0.0","mobile":false,"os":"Windows 10","vsync_rate":61.29,"participant_id":"MAX_3","prestimulus_duration":518,"correct":false,"type":"RodFrame","illusion_strength":45,"illusion_difference":0.05,"block_number":3,"trial_number":16},{"rt":null,"stimulus":"<div style=\"font-size:60px;\">+</div>","response":null,"screen":"fixation","trial_type":"html-keyboard-response","trial_index":188,"time_elapsed":191307,"internal_node_id":"0.0-6.0-2.0-0.16","screen_height":764,"screen_width":1601,"browser":"chrome","browser_version":"103.0.0","mobile":false,"os":"Windows 10","vsync_rate":61.29,"participant_id":"MAX_3","trial_duration":688},{"rt":690,"stimulus":"stimuli/RodFrame_str-45.0_diff10.0.png","response":"arrowright","screen":"Trial","block":"RodFrame","correct_response":"arrowright","trial_type":"image-keyboard-response","trial_index":189,"time_elapsed":191998,"internal_node_id":"0.0-6.0-2.0-1.16","screen_height":764,"screen_width":1601,"browser":"chrome","browser_version":"103.0.0","mobile":false,"os":"Windows 10","vsync_rate":61.29,"participant_id":"MAX_3","prestimulus_duration":701,"correct":true,"type":"RodFrame","illusion_strength":-45,"illusion_difference":10,"block_number":3,"trial_number":17},{"rt":null,"stimulus":"<div style=\"font-size:60px;\">+</div>","response":null,"screen":"fixation","trial_type":"html-keyboard-response","trial_index":190,"time_elapsed":192324,"internal_node_id":"0.0-6.0-2.0-0.17","screen_height":764,"screen_width":1601,"browser":"chrome","browser_version":"103.0.0","mobile":false,"os":"Windows 10","vsync_rate":61.29,"participant_id":"MAX_3","trial_duration":315},{"rt":681,"stimulus":"stimuli/RodFrame_str27.0_diff0.05.png","response":"arrowleft","screen":"Trial","block":"RodFrame","correct_response":"arrowright","trial_type":"image-keyboard-response","trial_index":191,"time_elapsed":193006,"internal_node_id":"0.0-6.0-2.0-1.17","screen_height":764,"screen_width":1601,"browser":"chrome","browser_version":"103.0.0","mobile":false,"os":"Windows 10","vsync_rate":61.29,"participant_id":"MAX_3","prestimulus_duration":326,"correct":false,"type":"RodFrame","illusion_strength":27,"illusion_difference":0.05,"block_number":3,"trial_number":18},{"rt":null,"stimulus":"<div style=\"font-size:60px;\">+</div>","response":null,"screen":"fixation","trial_type":"html-keyboard-response","trial_index":192,"time_elapsed":193455,"internal_node_id":"0.0-6.0-2.0-0.18","screen_height":764,"screen_width":1601,"browser":"chrome","browser_version":"103.0.0","mobile":false,"os":"Windows 10","vsync_rate":61.29,"participant_id":"MAX_3","trial_duration":433},{"rt":766,"stimulus":"stimuli/RodFrame_str27.0_diff-10.0.png","response":"arrowleft","screen":"Trial","block":"RodFrame","correct_response":"arrowleft","trial_type":"image-keyboard-response","trial_index":193,"time_elapsed":194222,"internal_node_id":"0.0-6.0-2.0-1.18","screen_height":764,"screen_width":1601,"browser":"chrome","browser_version":"103.0.0","mobile":false,"os":"Windows 10","vsync_rate":61.29,"participant_id":"MAX_3","prestimulus_duration":449,"correct":true,"type":"RodFrame","illusion_strength":27,"illusion_difference":-10,"block_number":3,"trial_number":19},{"rt":null,"stimulus":"<div style=\"font-size:60px;\">+</div>","response":null,"screen":"fixation","trial_type":"html-keyboard-response","trial_index":194,"time_elapsed":195195,"internal_node_id":"0.0-6.0-2.0-0.19","screen_height":764,"screen_width":1601,"browser":"chrome","browser_version":"103.0.0","mobile":false,"os":"Windows 10","vsync_rate":61.29,"participant_id":"MAX_3","trial_duration":967},{"rt":929,"stimulus":"stimuli/RodFrame_str45.0_diff-0.05.png","response":"arrowright","screen":"Trial","block":"RodFrame","correct_response":"arrowleft","trial_type":"image-keyboard-response","trial_index":195,"time_elapsed":196126,"internal_node_id":"0.0-6.0-2.0-1.19","screen_height":764,"screen_width":1601,"browser":"chrome","browser_version":"103.0.0","mobile":false,"os":"Windows 10","vsync_rate":61.29,"participant_id":"MAX_3","prestimulus_duration":973,"correct":false,"type":"RodFrame","illusion_strength":45,"illusion_difference":-0.05,"block_number":3,"trial_number":20},{"rt":null,"stimulus":"<div style=\"font-size:60px;\">+</div>","response":null,"screen":"fixation","trial_type":"html-keyboard-response","trial_index":196,"time_elapsed":196675,"internal_node_id":"0.0-6.0-2.0-0.20","screen_height":764,"screen_width":1601,"browser":"chrome","browser_version":"103.0.0","mobile":false,"os":"Windows 10","vsync_rate":61.29,"participant_id":"MAX_3","trial_duration":547},{"rt":786,"stimulus":"stimuli/RodFrame_str27.0_diff-3.78.png","response":"arrowleft","screen":"Trial","block":"RodFrame","correct_response":"arrowleft","trial_type":"image-keyboard-response","trial_index":197,"time_elapsed":197462,"internal_node_id":"0.0-6.0-2.0-1.20","screen_height":764,"screen_width":1601,"browser":"chrome","browser_version":"103.0.0","mobile":false,"os":"Windows 10","vsync_rate":61.29,"participant_id":"MAX_3","prestimulus_duration":549,"correct":true,"type":"RodFrame","illusion_strength":27,"illusion_difference":-3.7812499999999996,"block_number":3,"trial_number":21},{"rt":null,"stimulus":"<div style=\"font-size:60px;\">+</div>","response":null,"screen":"fixation","trial_type":"html-keyboard-response","trial_index":198,"time_elapsed":197848,"internal_node_id":"0.0-6.0-2.0-0.21","screen_height":764,"screen_width":1601,"browser":"chrome","browser_version":"103.0.0","mobile":false,"os":"Windows 10","vsync_rate":61.29,"participant_id":"MAX_3","trial_duration":385},{"rt":654,"stimulus":"stimuli/RodFrame_str9.0_diff-10.0.png","response":"arrowleft","screen":"Trial","block":"RodFrame","correct_response":"arrowleft","trial_type":"image-keyboard-response","trial_index":199,"time_elapsed":198503,"internal_node_id":"0.0-6.0-2.0-1.21","screen_height":764,"screen_width":1601,"browser":"chrome","browser_version":"103.0.0","mobile":false,"os":"Windows 10","vsync_rate":61.29,"participant_id":"MAX_3","prestimulus_duration":386,"correct":true,"type":"RodFrame","illusion_strength":9,"illusion_difference":-10,"block_number":3,"trial_number":22},{"rt":null,"stimulus":"<div style=\"font-size:60px;\">+</div>","response":null,"screen":"fixation","trial_type":"html-keyboard-response","trial_index":200,"time_elapsed":198852,"internal_node_id":"0.0-6.0-2.0-0.22","screen_height":764,"screen_width":1601,"browser":"chrome","browser_version":"103.0.0","mobile":false,"os":"Windows 10","vsync_rate":61.29,"participant_id":"MAX_3","trial_duration":340},{"rt":1249,"stimulus":"stimuli/RodFrame_str-27.0_diff-0.05.png","response":"arrowleft","screen":"Trial","block":"RodFrame","correct_response":"arrowleft","trial_type":"image-keyboard-response","trial_index":201,"time_elapsed":200102,"internal_node_id":"0.0-6.0-2.0-1.22","screen_height":764,"screen_width":1601,"browser