[{"success":true,"trial_type":"fullscreen","trial_index":0,"time_elapsed":19102,"internal_node_id":"0.0-0.0","screen_height":678,"screen_width":1440,"browser":"chrome","browser_version":"103.0.0","mobile":false,"os":"Mac OS","vsync_rate":60.01,"participant_id":"SK_1"},{"width":1440,"height":678,"webaudio":true,"browser":"chrome","browser_version":"103.0.0","mobile":false,"os":"Mac OS","fullscreen":true,"vsync_rate":60.01,"webcam":true,"microphone":true,"screen":"browser_info","trial_type":"browser-check","trial_index":1,"time_elapsed":20112,"internal_node_id":"0.0-1.0","screen_height":678,"screen_width":1440,"participant_id":"SK_1"},{"rt":5483,"response":{"Participant_ID":"SK_1"},"screen":"participant_info","version":"1.0","date":"13/07/2022","time":"09:01:31","trial_type":"survey-text","trial_index":2,"time_elapsed":25601,"internal_node_id":"0.0-2.0","screen_height":678,"screen_width":1440,"browser":"chrome","browser_version":"103.0.0","mobile":false,"os":"Mac OS","vsync_rate":60.01,"participant_id":"SK_1"},{"rt":104778,"stimulus":"<p><b>The Illusion Game</b></p><p>In this reaction-time game, you will need to be <b>as fast as possible</b> and make correct responses by resisting different visual illusions.</p><p>Sometimes, it's very hard and you want to rely on your intuition and gut feeling to answer fast without making errors.</p><p>Don't worry, we will show you examples of each illusion before each block. Each illusion block will be repeated two times (so that you have an opportunity to improve your score!), but the order of the blocks is random.</p><p>Remember, your goal is to be as <b>fast</b> and <b>accurate</b> as possible. Good luck!</p>","response":0,"screen":"general_instructions","trial_type":"html-button-response","trial_index":3,"time_elapsed":130382,"internal_node_id":"0.0-3.0","screen_height":678,"screen_width":1440,"browser":"chrome","browser_version":"103.0.0","mobile":false,"os":"Mac OS","vsync_rate":60.01,"participant_id":"SK_1"},{"success":true,"timeout":false,"failed_images":[],"failed_audio":[],"failed_video":[],"trial_type":"preload","trial_index":4,"time_elapsed":130384,"internal_node_id":"0.0-4.0-0.0","screen_height":678,"screen_width":1440,"browser":"chrome","browser_version":"103.0.0","mobile":false,"os":"Mac OS","vsync_rate":60.01,"participant_id":"SK_1"},{"rt":2857,"stimulus":"<p><b>Part 1</b></p><p>In this part, two horizontal red lines will appear one above the other.</p><p>Your task is to select which <b>line has a longer length</b> as fast as you can, without making errors.</p><p>Don't get distracted by the surrounding black arrows at the end of the red lines!</p><p>Press <b>the UP or the DOWN arrow</b> to indicate where is the longest <b>red line.</b></p><div style='float: center'><img src='utils/stimuli_demo/MullerLyer_Demo.png' height='300'></img><p><img src='utils/answer/answer_updown_keyboard.PNG' height='150'></img></p><p class='small'>In this example, the correct answer is the <b>UP arrow</b>.</p></div><p>Are you ready? <b>Press ENTER to start</b></p>","response":"enter","trial_type":"html-keyboard-response","trial_index":5,"time_elapsed":133243,"internal_node_id":"0.0-4.0-1.0","screen_height":678,"screen_width":1440,"browser":"chrome","browser_version":"103.0.0","mobile":false,"os":"Mac OS","vsync_rate":60.01,"participant_id":"SK_1"},{"rt":null,"stimulus":"<div style=\"font-size:60px;\">+</div>","response":null,"screen":"fixation","trial_type":"html-keyboard-response","trial_index":6,"time_elapsed":134518,"internal_node_id":"0.0-4.0-2.0-0.0","screen_height":678,"screen_width":1440,"browser":"chrome","browser_version":"103.0.0","mobile":false,"os":"Mac OS","vsync_rate":60.01,"participant_id":"SK_1","trial_duration":764},{"rt":2023,"stimulus":"stimuli/MullerLyer_str-8.0_diff-0.04.png","response":"arrowdown","screen":"Trial","block":"MullerLyer","correct_response":"arrowdown","trial_type":"image-keyboard-response","trial_index":7,"time_elapsed":136544,"internal_node_id":"0.0-4.0-2.0-1.0","screen_height":678,"screen_width":1440,"browser":"chrome","browser_version":"103.0.0","mobile":false,"os":"Mac OS","vsync_rate":60.01,"participant_id":"SK_1","prestimulus_duration":1275,"correct":true,"type":"MullerLyer","illusion_strength":-8,"illusion_difference":-0.04,"block_number":1,"trial_number":1},{"rt":null,"stimulus":"<div style=\"font-size:60px;\">+</div>","response":null,"screen":"fixation","trial_type":"html-keyboard-response","trial_index":8,"time_elapsed":137029,"internal_node_id":"0.0-4.0-2.0-0.1","screen_height":678,"screen_width":1440,"browser":"chrome","browser_version":"103.0.0","mobile":false,"os":"Mac OS","vsync_rate":60.01,"participant_id":"SK_1","trial_duration":477},{"rt":796,"stimulus":"stimuli/MullerLyer_str-8.0_diff0.04.png","response":"arrowup","screen":"Trial","block":"MullerLyer","correct_response":"arrowup","trial_type":"image-keyboard-response","trial_index":9,"time_elapsed":137826,"internal_node_id":"0.0-4.0-2.0-1.1","screen_height":678,"screen_width":1440,"browser":"chrome","browser_version":"103.0.0","mobile":false,"os":"Mac OS","vsync_rate":60.01,"participant_id":"SK_1","prestimulus_duration":485,"correct":true,"type":"MullerLyer","illusion_strength":-8,"illusion_difference":0.04,"block_number":1,"trial_number":2},{"rt":null,"stimulus":"<div style=\"font-size:60px;\">+</div>","response":null,"screen":"fixation","trial_type":"html-keyboard-response","trial_index":10,"time_elapsed":138328,"internal_node_id":"0.0-4.0-2.0-0.2","screen_height":678,"screen_width":1440,"browser":"chrome","browser_version":"103.0.0","mobile":false,"os":"Mac OS","vsync_rate":60.01,"participant_id":"SK_1","trial_duration":497},{"rt":773,"stimulus":"stimuli/MullerLyer_str-8.0_diff0.4.png","response":"arrowup","screen":"Trial","block":"MullerLyer","correct_response":"arrowup","trial_type":"image-keyboard-response","trial_index":11,"time_elapsed":139102,"internal_node_id":"0.0-4.0-2.0-1.2","screen_height":678,"screen_width":1440,"browser":"chrome","browser_version":"103.0.0","mobile":false,"os":"Mac OS","vsync_rate":60.01,"participant_id":"SK_1","prestimulus_duration":502,"correct":true,"type":"MullerLyer","illusion_strength":-8,"illusion_difference":0.4,"block_number":1,"trial_number":3},{"rt":null,"stimulus":"<div style=\"font-size:60px;\">+</div>","response":null,"screen":"fixation","trial_type":"html-keyboard-response","trial_index":12,"time_elapsed":139432,"internal_node_id":"0.0-4.0-2.0-0.3","screen_height":678,"screen_width":1440,"browser":"chrome","browser_version":"103.0.0","mobile":false,"os":"Mac OS","vsync_rate":60.01,"participant_id":"SK_1","trial_duration":327},{"rt":838,"stimulus":"stimuli/MullerLyer_str-40.0_diff-0.04.png","response":"arrowdown","screen":"Trial","block":"MullerLyer","correct_response":"arrowdown","trial_type":"image-keyboard-response","trial_index":13,"time_elapsed":140272,"internal_node_id":"0.0-4.0-2.0-1.3","screen_height":678,"screen_width":1440,"browser":"chrome","browser_version":"103.0.0","mobile":false,"os":"Mac OS","vsync_rate":60.01,"participant_id":"SK_1","prestimulus_duration":330,"correct":true,"type":"MullerLyer","illusion_strength":-40,"illusion_difference":-0.04,"block_number":1,"trial_number":4},{"rt":null,"stimulus":"<div style=\"font-size:60px;\">+</div>","response":null,"screen":"fixation","trial_type":"html-keyboard-response","trial_index":14,"time_elapsed":141114,"internal_node_id":"0.0-4.0-2.0-0.4","screen_height":678,"screen_width":1440,"browser":"chrome","browser_version":"103.0.0","mobile":false,"os":"Mac OS","vsync_rate":60.01,"participant_id":"SK_1","trial_duration":836},{"rt":734,"stimulus":"stimuli/MullerLyer_str-40.0_diff-0.18.png","response":"arrowdown","screen":"Trial","block":"MullerLyer","correct_response":"arrowdown","trial_type":"image-keyboard-response","trial_index":15,"time_elapsed":141849,"internal_node_id":"0.0-4.0-2.0-1.4","screen_height":678,"screen_width":1440,"browser":"chrome","browser_version":"103.0.0","mobile":false,"os":"Mac OS","vsync_rate":60.01,"participant_id":"SK_1","prestimulus_duration":842,"correct":true,"type":"MullerLyer","illusion_strength":-40,"illusion_difference":-0.17500000000000002,"block_number":1,"trial_number":5},{"rt":null,"stimulus":"<div style=\"font-size:60px;\">+</div>","response":null,"screen":"fixation","trial_type":"html-keyboard-response","trial_index":16,"time_elapsed":142322,"internal_node_id":"0.0-4.0-2.0-0.5","screen_height":678,"screen_width":1440,"browser":"chrome","browser_version":"103.0.0","mobile":false,"os":"Mac OS","vsync_rate":60.01,"participant_id":"SK_1","trial_duration":470},{"rt":814,"stimulus":"stimuli/MullerLyer_str-24.0_diff0.04.png","response":"arrowup","screen":"Trial","block":"MullerLyer","correct_response":"arrowup","trial_type":"image-keyboard-response","trial_index":17,"time_elapsed":143138,"internal_node_id":"0.0-4.0-2.0-1.5","screen_height":678,"screen_width":1440,"browser":"chrome","browser_version":"103.0.0","mobile":false,"os":"Mac OS","vsync_rate":60.01,"participant_id":"SK_1","prestimulus_duration":473,"correct":true,"type":"MullerLyer","illusion_strength":-24,"illusion_difference":0.04,"block_number":1,"trial_number":6},{"rt":null,"stimulus":"<div style=\"font-size:60px;\">+</div>","response":null,"screen":"fixation","trial_type":"html-keyboard-response","trial_index":18,"time_elapsed":144111,"internal_node_id":"0.0-4.0-2.0-0.6","screen_height":678,"screen_width":1440,"browser":"chrome","browser_version":"103.0.0","mobile":false,"os":"Mac OS","vsync_rate":60.01,"participant_id":"SK_1","trial_duration":966},{"rt":769,"stimulus":"stimuli/MullerLyer_str-40.0_diff-0.4.png","response":"arrowdown","screen":"Trial","block":"MullerLyer","correct_response":"arrowdown","trial_type":"image-keyboard-response","trial_index":19,"time_elapsed":144881,"internal_node_id":"0.0-4.0-2.0-1.6","screen_height":678,"screen_width":1440,"browser":"chrome","browser_version":"103.0.0","mobile":false,"os":"Mac OS","vsync_rate":60.01,"participant_id":"SK_1","prestimulus_duration":973,"correct":true,"type":"MullerLyer","illusion_strength":-40,"illusion_difference":-0.4,"block_number":1,"trial_number":7},{"rt":null,"stimulus":"<div style=\"font-size:60px;\">+</div>","response":null,"screen":"fixation","trial_type":"html-keyboard-response","trial_index":20,"time_elapsed":145588,"internal_node_id":"0.0-4.0-2.0-0.7","screen_height":678,"screen_width":1440,"browser":"chrome","browser_version":"103.0.0","mobile":false,"os":"Mac OS","vsync_rate":60.01,"participant_id":"SK_1","trial_duration":700},{"rt":721,"stimulus":"stimuli/MullerLyer_str-40.0_diff0.4.png","response":"arrowup","screen":"Trial","block":"MullerLyer","correct_response":"arrowup","trial_type":"image-keyboard-response","trial_index":21,"time_elapsed":146311,"internal_node_id":"0.0-4.0-2.0-1.7","screen_height":678,"screen_width":1440,"browser":"chrome","browser_version":"103.0.0","mobile":false,"os":"Mac OS","vsync_rate":60.01,"participant_id":"SK_1","prestimulus_duration":707,"correct":true,"type":"MullerLyer","illusion_strength":-40,"illusion_difference":0.4,"block_number":1,"trial_number":8},{"rt":null,"stimulus":"<div style=\"font-size:60px;\">+</div>","response":null,"screen":"fixation","trial_type":"html-keyboard-response","trial_index":22,"time_elapsed":147185,"internal_node_id":"0.0-4.0-2.0-0.8","screen_height":678,"screen_width":1440,"browser":"chrome","browser_version":"103.0.0","mobile":false,"os":"Mac OS","vsync_rate":60.01,"participant_id":"SK_1","trial_duration":867},{"rt":1177,"stimulus":"stimuli/MullerLyer_str24.0_diff-0.4.png","response":"arrowdown","screen":"Trial","block":"MullerLyer","correct_response":"arrowdown","trial_type":"image-keyboard-response","trial_index":23,"time_elapsed":148363,"internal_node_id":"0.0-4.0-2.0-1.8","screen_height":678,"screen_width":1440,"browser":"chrome","browser_version":"103.0.0","mobile":false,"os":"Mac OS","vsync_rate":60.01,"participant_id":"SK_1","prestimulus_duration":874,"correct":true,"type":"MullerLyer","illusion_strength":24,"illusion_difference":-0.4,"block_number":1,"trial_number":9},{"rt":null,"stimulus":"<div style=\"font-size:60px;\">+</div>","response":null,"screen":"fixation","trial_type":"html-keyboard-response","trial_index":24,"time_elapsed":149027,"internal_node_id":"0.0-4.0-2.0-0.9","screen_height":678,"screen_width":1440,"browser":"chrome","browser_version":"103.0.0","mobile":false,"os":"Mac OS","vsync_rate":60.01,"participant_id":"SK_1","trial_duration":657},{"rt":875,"stimulus":"stimuli/MullerLyer_str-8.0_diff0.18.png","response":"arrowup","screen":"Trial","block":"MullerLyer","correct_response":"arrowup","trial_type":"image-keyboard-response","trial_index":25,"time_elapsed":149904,"internal_node_id":"0.0-4.0-2.0-1.9","screen_height":678,"screen_width":1440,"browser":"chrome","browser_version":"103.0.0","mobile":false,"os":"Mac OS","vsync_rate":60.01,"participant_id":"SK_1","prestimulus_duration":664,"correct":true,"type":"MullerLyer","illusion_strength":-8,"illusion_difference":0.17500000000000002,"block_number":1,"trial_number":10},{"rt":null,"stimulus":"<div style=\"font-size:60px;\">+</div>","response":null,"screen":"fixation","trial_type":"html-keyboard-response","trial_index":26,"time_elapsed":150778,"internal_node_id":"0.0-4.0-2.0-0.10","screen_height":678,"screen_width":1440,"browser":"chrome","browser_version":"103.0.0","mobile":false,"os":"Mac OS","vsync_rate":60.01,"participant_id":"SK_1","trial_duration":867},{"rt":2236,"stimulus":"stimuli/MullerLyer_str24.0_diff0.04.png","response":"arrowdown","screen":"Trial","block":"MullerLyer","correct_response":"arrowup","trial_type":"image-keyboard-response","trial_index":27,"time_elapsed":153015,"internal_node_id":"0.0-4.0-2.0-1.10","screen_height":678,"screen_width":1440,"browser":"chrome","browser_version":"103.0.0","mobile":false,"os":"Mac OS","vsync_rate":60.01,"participant_id":"SK_1","prestimulus_duration":874,"correct":false,"type":"MullerLyer","illusion_strength":24,"illusion_difference":0.04,"block_number":1,"trial_number":11},{"rt":null,"stimulus":"<div style=\"font-size:60px;\">+</div>","response":null,"screen":"fixation","trial_type":"html-keyboard-response","trial_index":28,"time_elapsed":153797,"internal_node_id":"0.0-4.0-2.0-0.11","screen_height":678,"screen_width":1440,"browser":"chrome","browser_version":"103.0.0","mobile":false,"os":"Mac OS","vsync_rate":60.01,"participant_id":"SK_1","trial_duration":775},{"rt":686,"stimulus":"stimuli/MullerLyer_str-24.0_diff0.4.png","response":"arrowup","screen":"Trial","block":"MullerLyer","correct_response":"arrowup","trial_type":"image-keyboard-response","trial_index":29,"time_elapsed":154485,"internal_node_id":"0.0-4.0-2.0-1.11","screen_height":678,"screen_width":1440,"browser":"chrome","browser_version":"103.0.0","mobile":false,"os":"Mac OS","vsync_rate":60.01,"participant_id":"SK_1","prestimulus_duration":782,"correct":true,"type":"MullerLyer","illusion_strength":-24,"illusion_difference":0.4,"block_number":1,"trial_number":12},{"rt":null,"stimulus":"<div style=\"font-size:60px;\">+</div>","response":null,"screen":"fixation","trial_type":"html-keyboard-response","trial_index":30,"time_elapsed":154816,"internal_node_id":"0.0-4.0-2.0-0.12","screen_height":678,"screen_width":1440,"browser":"chrome","browser_version":"103.0.0","mobile":false,"os":"Mac OS","vsync_rate":60.01,"participant_id":"SK_1","trial_duration":324},{"rt":874,"stimulus":"stimuli/MullerLyer_str-24.0_diff-0.04.png","response":"arrowdown","screen":"Trial","block":"MullerLyer","correct_response":"arrowdown","trial_type":"image-keyboard-response","trial_index":31,"time_elapsed":155691,"internal_node_id":"0.0-4.0-2.0-1.12","screen_height":678,"screen_width":1440,"browser":"chrome","browser_version":"103.0.0","mobile":false,"os":"Mac OS","vsync_rate":60.01,"participant_id":"SK_1","prestimulus_duration":331,"correct":true,"type":"MullerLyer","illusion_strength":-24,"illusion_difference":-0.04,"block_number":1,"trial_number":13},{"rt":null,"stimulus":"<div style=\"font-size:60px;\">+</div>","response":null,"screen":"fixation","trial_type":"html-keyboard-response","trial_index":32,"time_elapsed":156585,"internal_node_id":"0.0-4.0-2.0-0.13","screen_height":678,"screen_width":1440,"browser":"chrome","browser_version":"103.0.0","mobile":false,"os":"Mac OS","vsync_rate":60.01,"participant_id":"SK_1","trial_duration":887},{"rt":794,"stimulus":"stimuli/MullerLyer_str8.0_diff0.18.png","response":"arrowup","screen":"Trial","block":"MullerLyer","correct_response":"arrowup","trial_type":"image-keyboard-response","trial_index":33,"time_elapsed":157380,"internal_node_id":"0.0-4.0-2.0-1.13","screen_height":678,"screen_width":1440,"browser":"chrome","browser_version":"103.0.0","mobile":false,"os":"Mac OS","vsync_rate":60.01,"participant_id":"SK_1","prestimulus_duration":894,"correct":true,"type":"MullerLyer","illusion_strength":8,"illusion_difference":0.17500000000000002,"block_number":1,"trial_number":14},{"rt":null,"stimulus":"<div style=\"font-size:60px;\">+</div>","response":null,"screen":"fixation","trial_type":"html-keyboard-response","trial_index":34,"time_elapsed":157963,"internal_node_id":"0.0-4.0-2.0-0.14","screen_height":678,"screen_width":1440,"browser":"chrome","browser_version":"103.0.0","mobile":false,"os":"Mac OS","vsync_rate":60.01,"participant_id":"SK_1","trial_duration":581},{"rt":853,"stimulus":"stimuli/MullerLyer_str8.0_diff-0.18.png","response":"arrowup","screen":"Trial","block":"MullerLyer","correct_response":"arrowdown","trial_type":"image-keyboard-response","trial_index":35,"time_elapsed":158817,"internal_node_id":"0.0-4.0-2.0-1.14","screen_height":678,"screen_width":1440,"browser":"chrome","browser_version":"103.0.0","mobile":false,"os":"Mac OS","vsync_rate":60.01,"participant_id":"SK_1","prestimulus_duration":583,"correct":false,"type":"MullerLyer","illusion_strength":8,"illusion_difference":-0.17500000000000002,"block_number":1,"trial_number":15},{"rt":null,"stimulus":"<div style=\"font-size:60px;\">+</div>","response":null,"screen":"fixation","trial_type":"html-keyboard-response","trial_index":36,"time_elapsed":159493,"internal_node_id":"0.0-4.0-2.0-0.15","screen_height":678,"screen_width":1440,"browser":"chrome","browser_version":"103.0.0","mobile":false,"os":"Mac OS","vsync_rate":60.01,"participant_id":"SK_1","trial_duration":670},{"rt":931,"stimulus":"stimuli/MullerLyer_str8.0_diff-0.04.png","response":"arrowdown","screen":"Trial","block":"MullerLyer","correct_response":"arrowdown","trial_type":"image-keyboard-response","trial_index":37,"time_elapsed":160425,"internal_node_id":"0.0-4.0-2.0-1.15","screen_height":678,"screen_width":1440,"browser":"chrome","browser_version":"103.0.0","mobile":false,"os":"Mac OS","vsync_rate":60.01,"participant_id":"SK_1","prestimulus_duration":676,"correct":true,"type":"MullerLyer","illusion_strength":8,"illusion_difference":-0.04,"block_number":1,"trial_number":16},{"rt":null,"stimulus":"<div style=\"font-size:60px;\">+</div>","response":null,"screen":"fixation","trial_type":"html-keyboard-response","trial_index":38,"time_elapsed":160735,"internal_node_id":"0.0-4.0-2.0-0.16","screen_height":678,"screen_width":1440,"browser":"chrome","browser_version":"103.0.0","mobile":false,"os":"Mac OS","vsync_rate":60.01,"participant_id":"SK_1","trial_duration":303},{"rt":798,"stimulus":"stimuli/MullerLyer_str40.0_diff-0.04.png","response":"arrowup","screen":"Trial","block":"MullerLyer","correct_response":"arrowdown","trial_type":"image-keyboard-response","trial_index":39,"time_elapsed":161535,"internal_node_id":"0.0-4.0-2.0-1.16","screen_height":678,"screen_width":1440,"browser":"chrome","browser_version":"103.0.0","mobile":false,"os":"Mac OS","vsync_rate":60.01,"participant_id":"SK_1","prestimulus_duration":310,"correct":false,"type":"MullerLyer","illusion_strength":40,"illusion_difference":-0.04,"block_number":1,"trial_number":17},{"rt":null,"stimulus":"<div style=\"font-size:60px;\">+</div>","response":null,"screen":"fixation","trial_type":"html-keyboard-response","trial_index":40,"time_elapsed":162009,"internal_node_id":"0.0-4.0-2.0-0.17","screen_height":678,"screen_width":1440,"browser":"chrome","browser_version":"103.0.0","mobile":false,"os":"Mac OS","vsync_rate":60.01,"participant_id":"SK_1","trial_duration":468},{"rt":1582,"stimulus":"stimuli/MullerLyer_str40.0_diff0.4.png","response":"arrowup","screen":"Trial","block":"MullerLyer","correct_response":"arrowup","trial_type":"image-keyboard-response","trial_index":41,"time_elapsed":163593,"internal_node_id":"0.0-4.0-2.0-1.17","screen_height":678,"screen_width":1440,"browser":"chrome","browser_version":"103.0.0","mobile":false,"os":"Mac OS","vsync_rate":60.01,"participant_id":"SK_1","prestimulus_duration":474,"correct":true,"type":"MullerLyer","illusion_strength":40,"illusion_difference":0.4,"block_number":1,"trial_number":18},{"rt":null,"stimulus":"<div style=\"font-size:60px;\">+</div>","response":null,"screen":"fixation","trial_type":"html-keyboard-response","trial_index":42,"time_elapsed":163862,"internal_node_id":"0.0-4.0-2.0-0.18","screen_height":678,"screen_width":1440,"browser":"chrome","browser_version":"103.0.0","mobile":false,"os":"Mac OS","vsync_rate":60.01,"participant_id":"SK_1","trial_duration":263},{"rt":1095,"stimulus":"stimuli/MullerLyer_str-8.0_diff-0.18.png","response":"arrowdown","screen":"Trial","block":"MullerLyer","correct_response":"arrowdown","trial_type":"image-keyboard-response","trial_index":43,"time_elapsed":164958,"internal_node_id":"0.0-4.0-2.0-1.18","screen_height":678,"screen_width":1440,"browser":"chrome","browser_version":"103.0.0","mobile":false,"os":"Mac OS","vsync_rate":60.01,"participant_id":"SK_1","prestimulus_duration":269,"correct":true,"type":"MullerLyer","illusion_strength":-8,"illusion_difference":-0.17500000000000002,"block_number":1,"trial_number":19},{"rt":null,"stimulus":"<div style=\"font-size:60px;\">+</div>","response":null,"screen":"fixation","trial_type":"html-keyboard-response","trial_index":44,"time_elapsed":165858,"internal_node_id":"0.0-4.0-2.0-0.19","screen_height":678,"screen_width":1440,"browser":"chrome","browser_version":"103.0.0","mobile":false,"os":"Mac OS","vsync_rate":60.01,"participant_id":"SK_1","trial_duration":893},{"rt":916,"stimulus":"stimuli/MullerLyer_str-24.0_diff-0.18.png","response":"arrowdown","screen":"Trial","block":"MullerLyer","correct_response":"arrowdown","trial_type":"image-keyboard-response","trial_index":45,"time_elapsed":166775,"internal_node_id":"0.0-4.0-2.0-1.19","screen_height":678,"screen_width":1440,"browser":"chrome","browser_version":"103.0.0","mobile":false,"os":"Mac OS","vsync_rate":60.01,"participant_id":"SK_1","prestimulus_duration":900,"correct":true,"type":"MullerLyer","illusion_strength":-24,"illusion_difference":-0.17500000000000002,"block_number":1,"trial_number":20},{"rt":null,"stimulus":"<div style=\"font-size:60px;\">+</div>","response":null,"screen":"fixation","trial_type":"html-keyboard-response","trial_index":46,"time_elapsed":167072,"internal_node_id":"0.0-4.0-2.0-0.20","screen_height":678,"screen_width":1440,"browser":"chrome","browser_version":"103.0.0","mobile":false,"os":"Mac OS","vsync_rate":60.01,"participant_id":"SK_1","trial_duration":296},{"rt":1197,"stimulus":"stimuli/MullerLyer_str40.0_diff0.18.png","response":"arrowdown","screen":"Trial","block":"MullerLyer","correct_response":"arrowup","trial_type":"image-keyboard-response","trial_index":47,"time_elapsed":168271,"internal_node_id":"0.0-4.0-2.0-1.20","screen_height":678,"screen_width":1440,"browser":"chrome","browser_version":"103.0.0","mobile":false,"os":"Mac OS","vsync_rate":60.01,"participant_id":"SK_1","prestimulus_duration":297,"correct":false,"type":"MullerLyer","illusion_strength":40,"illusion_difference":0.17500000000000002,"block_number":1,"trial_number":21},{"rt":null,"stimulus":"<div style=\"font-size:60px;\">+</div>","response":null,"screen":"fixation","trial_type":"html-keyboard-response","trial_index":48,"time_elapsed":169248,"internal_node_id":"0.0-4.0-2.0-0.21","screen_height":678,"screen_width":1440,"browser":"chrome","browser_version":"103.0.0","mobile":false,"os":"Mac OS","vsync_rate":60.01,"participant_id":"SK_1","trial_duration":971},{"rt":934,"stimulus":"stimuli/MullerLyer_str-40.0_diff0.04.png","response":"arrowup","screen":"Trial","block":"MullerLyer","correct_response":"arrowup","trial_type":"image-keyboard-response","trial_index":49,"time_elapsed":170183,"internal_node_id":"0.0-4.0-2.0-1.21","screen_height":678,"screen_width":1440,"browser":"chrome","browser_version":"103.0.0","mobile":false,"os":"Mac OS","vsync_rate":60.01,"participant_id":"SK_1","prestimulus_duration":977,"correct":true,"type":"MullerLyer","illusion_strength":-40,"illusion_difference":0.04,"block_number":1,"trial_number":22},{"rt":null,"stimulus":"<div style=\"font-size:60px;\">+</div>","response":null,"screen":"fixation","trial_type":"html-keyboard-response","trial_index":50,"time_elapsed":170883,"internal_node_id":"0.0-4.0-2.0-0.22","screen_height":678,"screen_width":1440,"browser":"chrome","browser_version":"103.0.0","mobile":false,"os":"Mac OS","vsync_rate":60.01,"participant_id":"SK_1","trial_duration":693},{"rt":854,"stimulus":"stimuli/MullerLyer_str8.0_diff0.4.png","response":"arrowup","screen":"Trial","block":"MullerLyer","correct_response":"arrowup","trial_type":"image-keyboard-response","trial_index":51,"time_elapsed":171738,"internal_node_id":"0.0-4.0-2.0-1.22","screen_height":678,"screen_width":1440,"browser":"chrome","browser_version":"103.0.0","mobile":false,"os":"Mac OS","vsync_rate":60.01,"participant_id":"SK_1","prestimulus_duration":700,"correct":true,"type":"MullerLyer","illusion_strength":8,"illusion_difference":0.4,"block_number":1,"trial_number":23},{"rt":null,"stimulus":"<div style=\"font-size:60px;\">+</div>","response":null,"screen":"fixation","trial_type":"html-keyboard-response","trial_index":52,"time_elapsed":172357,"internal_node_id":"0.0-4.0-2.0-0.23","screen_height":678,"screen_width":1440,"browser":"chrome","browser_version":"103.0.0","mobile":false,"os":"Mac OS","vsync_rate":60.01,"participant_id":"SK_1","trial_duration":612},{"rt":959,"stimulus":"stimuli/MullerLyer_str8.0_diff0.04.png","response":"arrowdown","screen":"Trial","block":"MullerLyer","correct_response":"arrowup","trial_type":"image-keyboard-response","trial_index":53,"time_elapsed":173317,"internal_node_id":"0.0-4.0-2.0-1.23","screen_height":678,"screen_width":1440,"browser":"chrome","browser_version":"103.0.0","mobile":false,"os":"Mac OS","vsync_rate":60.01,"participant_id":"SK_1","prestimulus_duration":619,"correct":false,"type":"MullerLyer","illusion_strength":8,"illusion_difference":0.04,"block_number":1,"trial_number":24},{"rt":null,"stimulus":"<div style=\"font-size:60px;\">+</div>","response":null,"screen":"fixation","trial_type":"html-keyboard-response","trial_index":54,"time_elapsed":174091,"internal_node_id":"0.0-4.0-2.0-0.24","screen_height":678,"screen_width":1440,"browser":"chrome","browser_version":"103.0.0","mobile":false,"os":"Mac OS","vsync_rate":60.01,"participant_id":"SK_1","trial_duration":771},{"rt":1517,"stimulus":"stimuli/MullerLyer_str8.0_diff-0.4.png","response":"arrowup","screen":"Trial","block":"MullerLyer","correct_response":"arrowdown","trial_type":"image-keyboard-response","trial_index":55,"time_elapsed":175610,"internal_node_id":"0.0-4.0-2.0-1.24","screen_height":678,"screen_width":1440,"browser":"chrome","browser_version":"103.0.0","mobile":false,"os":"Mac OS","vsync_rate":60.01,"participant_id":"SK_1","prestimulus_duration":774,"correct":false,"type":"MullerLyer","illusion_strength":8,"illusion_difference":-0.4,"block_number":1,"trial_number":25},{"rt":null,"stimulus":"<div style=\"font-size:60px;\">+</div>","response":null,"screen":"fixation","trial_type":"html-keyboard-response","trial_index":56,"time_elapsed":176296,"internal_node_id":"0.0-4.0-2.0-0.25","screen_height":678,"screen_width":1440,"browser":"chrome","browser_version":"103.0.0","mobile":false,"os":"Mac OS","vsync_rate":60.01,"participant_id":"SK_1","trial_duration":683},{"rt":1667,"stimulus":"stimuli/MullerLyer_str24.0_diff0.18.png","response":"arrowup","screen":"Trial","block":"MullerLyer","correct_response":"arrowup","trial_type":"image-keyboard-response","trial_index":57,"time_elapsed":177964,"internal_node_id":"0.0-4.0-2.0-1.25","screen_height":678,"screen_width":1440,"browser":"chrome","browser_version":"103.0.0","mobile":false,"os":"Mac OS","vsync_rate":60.01,"participant_id":"SK_1","prestimulus_duration":686,"correct":true,"type":"MullerLyer","illusion_strength":24,"illusion_difference":0.17500000000000002,"block_number":1,"trial_number":26},{"rt":null,"stimulus":"<div style=\"font-size:60px;\">+</div>","response":null,"screen":"fixation","trial_type":"html-keyboard-response","trial_index":58,"time_elapsed":178794,"internal_node_id":"0.0-4.0-2.0-0.26","screen_height":678,"screen_width":1440,"browser":"chrome","browser_version":"103.0.0","mobile":false,"os":"Mac OS","vsync_rate":60.01,"participant_id":"SK_1","trial_duration":823},{"rt":1364,"stimulus":"stimuli/MullerLyer_str40.0_diff-0.4.png","response":"arrowdown","screen":"Trial","block":"MullerLyer","correct_response":"arrowdown","trial_type":"image-keyboard-response","trial_index":59,"time_elapsed":180159,"internal_node_id":"0.0-4.0-2.0-1.26","screen_height":678,"screen_width":1440,"browser":"chrome","browser_version":"103.0.0","mobile":false,"os":"Mac OS","vsync_rate":60.01,"participant_id":"SK_1","prestimulus_duration":830,"correct":true,"type":"MullerLyer","illusion_strength":40,"illusion_difference":-0.4,"block_number":1,"trial_number":27},{"rt":null,"stimulus":"<div style=\"font-size:60px;\">+</div>","response":null,"screen":"fixation","trial_type":"html-keyboard-response","trial_index":60,"time_elapsed":180551,"internal_node_id":"0.0-4.0-2.0-0.27","screen_height":678,"screen_width":1440,"browser":"chrome","browser_version":"103.0.0","mobile":false,"os":"Mac OS","vsync_rate":60.01,"participant_id":"SK_1","trial_duration":389},{"rt":1087,"stimulus":"stimuli/MullerLyer_str24.0_diff0.4.png","response":"arrowup","screen":"Trial","block":"MullerLyer","correct_response":"arrowup","trial_type":"image-keyboard-response","trial_index":61,"time_elapsed":181640,"internal_node_id":"0.0-4.0-2.0-1.27","screen_height":678,"screen_width":1440,"browser":"chrome","browser_version":"103.0.0","mobile":false,"os":"Mac OS","vsync_rate":60.01,"participant_id":"SK_1","prestimulus_duration":392,"correct":true,"type":"MullerLyer","illusion_strength":24,"illusion_difference":0.4,"block_number":1,"trial_number":28},{"rt":null,"stimulus":"<div style=\"font-size:60px;\">+</div>","response":null,"screen":"fixation","trial_type":"html-keyboard-response","trial_index":62,"time_elapsed":182188,"internal_node_id":"0.0-4.0-2.0-0.28","screen_height":678,"screen_width":1440,"browser":"chrome","browser_version":"103.0.0","mobile":false,"os":"Mac OS","vsync_rate":60.01,"participant_id":"SK_1","trial_duration":546},{"rt":909,"stimulus":"stimuli/MullerLyer_str-24.0_diff-0.4.png","response":"arrowdown","screen":"Trial","block":"MullerLyer","correct_response":"arrowdown","trial_type":"image-keyboard-response","trial_index":63,"time_elapsed":183098,"internal_node_id":"0.0-4.0-2.0-1.28","screen_height":678,"screen_width":1440,"browser":"chrome","browser_version":"103.0.0","mobile":false,"os":"Mac OS","vsync_rate":60.01,"participant_id":"SK_1","prestimulus_duration":548,"correct":true,"type":"MullerLyer","illusion_strength":-24,"illusion_difference":-0.4,"block_number":1,"trial_number":29},{"rt":null,"stimulus":"<div style=\"font-size:60px;\">+</div>","response":null,"screen":"fixation","trial_type":"html-keyboard-response","trial_index":64,"time_elapsed":183757,"internal_node_id":"0.0-4.0-2.0-0.29","screen_height":678,"screen_width":1440,"browser":"chrome","browser_version":"103.0.0","mobile":false,"os":"Mac OS","vsync_rate":60.01,"participant_id":"SK_1","trial_duration":651},{"rt":898,"stimulus":"stimuli/MullerLyer_str-8.0_diff-0.4.png","response":"arrowdown","screen":"Trial","block":"MullerLyer","correct_response":"arrowdown","trial_type":"image-keyboard-response","trial_index":65,"time_elapsed":184656,"internal_node_id":"0.0-4.0-2.0-1.29","screen_height":678,"screen_width":1440,"browser":"chrome","browser_version":"103.0.0","mobile":false,"os":"Mac OS","vsync_rate":60.01,"participant_id":"SK_1","prestimulus_duration":659,"correct":true,"type":"MullerLyer","illusion_strength":-8,"illusion_difference":-0.4,"block_number":1,"trial_number":30},{"rt":null,"stimulus":"<div style=\"font-size:60px;\">+</div>","response":null,"screen":"fixation","trial_type":"html-keyboard-response","trial_index":66,"time_elapsed":185253,"internal_node_id":"0.0-4.0-2.0-0.30","screen_height":678,"screen_width":1440,"browser":"chrome","browser_version":"103.0.0","mobile":false,"os":"Mac OS","vsync_rate":60.01,"participant_id":"SK_1","trial_duration":591},{"rt":764,"stimulus":"stimuli/MullerLyer_str40.0_diff-0.18.png","response":"arrowup","screen":"Trial","block":"MullerLyer","correct_response":"arrowdown","trial_type":"image-keyboard-response","trial_index":67,"time_elapsed":186019,"internal_node_id":"0.0-4.0-2.0-1.30","screen_height":678,"screen_width":1440,"browser":"chrome","browser_version":"103.0.0","mobile":false,"os":"Mac OS","vsync_rate":60.01,"participant_id":"SK_1","prestimulus_duration":597,"correct":false,"type":"MullerLyer","illusion_strength":40,"illusion_difference":-0.17500000000000002,"block_number":1,"trial_number":31},{"rt":null,"stimulus":"<div style=\"font-size:60px;\">+</div>","response":null,"screen":"fixation","trial_type":"html-keyboard-response","trial_index":68,"time_elapsed":186312,"internal_node_id":"0.0-4.0-2.0-0.31","screen_height":678,"screen_width":1440,"browser":"chrome","browser_version":"103.0.0","mobile":false,"os":"Mac OS","vsync_rate":60.01,"participant_id":"SK_1","trial_duration":287},{"rt":1797,"stimulus":"stimuli/MullerLyer_str40.0_diff0.04.png","response":"arrowdown","screen":"Trial","block":"MullerLyer","correct_response":"arrowup","trial_type":"image-keyboard-response","trial_index":69,"time_elapsed":188111,"internal_node_id":"0.0-4.0-2.0-1.31","screen_height":678,"screen_width":1440,"browser":"chrome","browser_version":"103.0.0","mobile":false,"os":"Mac OS","vsync_rate":60.01,"participant_id":"SK_1","prestimulus_duration":293,"correct":false,"type":"MullerLyer","illusion_strength":40,"illusion_difference":0.04,"block_number":1,"trial_number":32},{"rt":null,"stimulus":"<div style=\"font-size:60px;\">+</div>","response":null,"screen":"fixation","trial_type":"html-keyboard-response","trial_index":70,"time_elapsed":188609,"internal_node_id":"0.0-4.0-2.0-0.32","screen_height":678,"screen_width":1440,"browser":"chrome","browser_version":"103.0.0","mobile":false,"os":"Mac OS","vsync_rate":60.01,"participant_id":"SK_1","trial_duration":491},{"rt":817,"stimulus":"stimuli/MullerLyer_str24.0_diff-0.18.png","response":"arrowup","screen":"Trial","block":"MullerLyer","correct_response":"arrowdown","trial_type":"image-keyboard-response","trial_index":71,"time_elapsed":189427,"internal_node_id":"0.0-4.0-2.0-1.32","screen_height":678,"screen_width":1440,"browser":"chrome","browser_version":"103.0.0","mobile":false,"os":"Mac OS","vsync_rate":60.01,"participant_id":"SK_1","prestimulus_duration":498,"correct":false,"type":"MullerLyer","illusion_strength":24,"illusion_difference":-0.17500000000000002,"block_number":1,"trial_number":33},{"rt":null,"stimulus":"<div style=\"font-size:60px;\">+</div>","response":null,"screen":"fixation","trial_type":"html-keyboard-response","trial_index":72,"time_elapsed":190215,"internal_node_id":"0.0-4.0-2.0-0.33","screen_height":678,"screen_width":1440,"browser":"chrome","browser_version":"103.0.0","mobile":false,"os":"Mac OS","vsync_rate":60.01,"participant_id":"SK_1","trial_duration":781},{"rt":918,"stimulus":"stimuli/MullerLyer_str-24.0_diff0.18.png","response":"arrowup","screen":"Trial","block":"MullerLyer","correct_response":"arrowup","trial_type":"image-keyboard-response","trial_index":73,"time_elapsed":191134,"internal_node_id":"0.0-4.0-2.0-1.33","screen_height":678,"screen_width":1440,"browser":"chrome","browser_version":"103.0.0","mobile":false,"os":"Mac OS","vsync_rate":60.01,"participant_id":"SK_1","prestimulus_duration":788,"correct":true,"type":"MullerLyer","illusion_strength":-24,"illusion_difference":0.17500000000000002,"block_number":1,"trial_number":34},{"rt":null,"stimulus":"<div style=\"font-size:60px;\">+</div>","response":null,"screen":"fixation","trial_type":"html-keyboard-response","trial_index":74,"time_elapsed":191898,"internal_node_id":"0.0-4.0-2.0-0.34","screen_height":678,"screen_width":1440,"browser":"chrome","browser_version":"103.0.0","mobile":false,"os":"Mac OS","vsync_rate":60.01,"participant_id":"SK_1","trial_duration":761},{"rt":1237,"stimulus":"stimuli/MullerLyer_str24.0_diff-0.04.png","response":"arrowup","screen":"Trial","block":"MullerLyer","correct_response":"arrowdown","trial_type":"image-keyboard-response","trial_index":75,"time_elapsed":193136,"internal_node_id":"0.0-4.0-2.0-1.34","screen_height":678,"screen_width":1440,"browser":"chrome","browser_version":"103.0.0","mobile":false,"os":"Mac OS","vsync_rate":60.01,"participant_id":"SK_1","prestimulus_duration":764,"correct":false,"type":"MullerLyer","illusion_strength":24,"illusion_difference":-0.04,"block_number":1,"trial_number":35},{"rt":null,"stimulus":"<div style=\"font-size:60px;\">+</div>","response":null,"screen":"fixation","trial_type":"html-keyboard-response","trial_index":76,"time_elapsed":193453,"internal_node_id":"0.0-4.0-2.0-0.35","screen_height":678,"screen_width":1440,"browser":"chrome","browser_version":"103.0.0","mobile":false,"os":"Mac OS","vsync_rate":60.01,"participant_id":"SK_1","trial_duration":311},{"rt":935,"stimulus":"stimuli/MullerLyer_str-40.0_diff0.18.png","response":"arrowup","screen":"Trial","block":"MullerLyer","correct_response":"arrowup","trial_type":"image-keyboard-response","trial_index":77,"time_elapsed":194389,"internal_node_id":"0.0-4.0-2.0-1.35","screen_height":678,"screen_width":1440,"browser":"chrome","browser_version":"103.0.0","mobile":false,"os":"Mac OS","vsync_rate":60.01,"participant_id":"SK_1","prestimulus_duration":317,"correct":true,"type":"MullerLyer","illusion_strength":-40,"illusion_difference":0.17500000000000002,"block_number":1,"trial_number":36},{"rt":1701,"stimulus":"<p>Your score for this illusion is <p style=\"color: black; font-size: 48px; font-weight: bold;\">3617</p><hr><hr><p>Can you do better in the next illusion?</p>","response":0,"screen":"block_results","trial_type":"html-button-response","trial_index":78,"time_elapsed":196097,"internal_node_id":"0.0-4.0-3.0","screen_height":678,"screen_width":1440,"browser":"chrome","browser_version":"103.0.0","mobile":false,"os":"Mac OS","vsync_rate":60.01,"participant_id":"SK_1"},{"success":true,"timeout":false,"failed_images":[],"failed_audio":[],"failed_video":[],"trial_type":"preload","trial_index":79,"time_elapsed":196099,"internal_node_id":"0.0-5.0-0.0","screen_height":678,"screen_width":1440,"browser":"chrome","browser_version":"103.0.0","mobile":false,"os":"Mac OS","vsync_rate":60.01,"participant_id":"SK_1"},{"rt":7719,"stimulus":"<p><b>Part 2</b></p><p>In this part, two red circles will appear side by side on the screen.</p><p>Your task is to select which <b>red circle is bigger</b> in size as fast as you can, without making errors.</p><p>Don't get distracted by the black outlines around the red circles!</p><p>Press <b>the LEFT or the RIGHT arrow</b> to indicate where is the biggest <b>red circle.</b></p><div style='float: center'><img src='utils/stimuli_demo/Delboeuf_Demo.png' height='300'></img><p><img src='utils/answer/answer_leftright_keyboard.PNG' height='150'></img></p><p class='small'>In this example, the correct answer is the <b>LEFT arrow</b>.</p></div><p>Are you ready? <b>Press ENTER to start</b></p>","response":"enter","trial_type":"html-keyboard-response","trial_index":80,"time_elapsed":203820,"internal_node_id":"0.0-5.0-1.0","screen_height":678,"screen_width":1440,"browser":"chrome","browser_version":"103.0.0","mobile":false,"os":"Mac OS","vsync_rate":60.01,"participant_id":"SK_1"},{"rt":null,"stimulus":"<div style=\"font-size:60px;\">+</div>","response":null,"screen":"fixation","trial_type":"html-keyboard-response","trial_index":81,"time_elapsed":205325,"internal_node_id":"0.0-5.0-2.0-0.0","screen_height":678,"screen_width":1440,"browser":"chrome","browser_version":"103.0.0","mobile":false,"os":"Mac OS","vsync_rate":60.01,"participant_id":"SK_1","trial_duration":998},{"rt":1155,"stimulus":"stimuli/Delboeuf_str-1.8_diff-0.08.png","response":"arrowright","screen":"Trial","block":"Delboeuf","correct_response":"arrowright","trial_type":"image-keyboard-response","trial_index":82,"time_elapsed":206482,"internal_node_id":"0.0-5.0-2.0-1.0","screen_height":678,"screen_width":1440,"browser":"chrome","browser_version":"103.0.0","mobile":false,"os":"Mac OS","vsync_rate":60.01,"participant_id":"SK_1","prestimulus_duration":1505,"correct":true,"type":"Delboeuf","illusion_strength":-1.8,"illusion_difference":-0.08,"block_number":2,"trial_number":1},{"rt":null,"stimulus":"<div style=\"font-size:60px;\">+</div>","response":null,"screen":"fixation","trial_type":"html-keyboard-response","trial_index":83,"time_elapsed":206818,"internal_node_id":"0.0-5.0-2.0-0.1","screen_height":678,"screen_width":1440,"browser":"chrome","browser_version":"103.0.0","mobile":false,"os":"Mac OS","vsync_rate":60.01,"participant_id":"SK_1","trial_duration":329},{"rt":705,"stimulus":"stimuli/Delboeuf_str0.36_diff0.8.png","response":"arrowleft","screen":"Trial","block":"Delboeuf","correct_response":"arrowleft","trial_type":"image-keyboard-response","trial_index":84,"time_elapsed":207524,"internal_node_id":"0.0-5.0-2.0-1.1","screen_height":678,"screen_width":1440,"browser":"chrome","browser_version":"103.0.0","mobile":false,"os":"Mac OS","vsync_rate":60.01,"participant_id":"SK_1","prestimulus_duration":336,"correct":true,"type":"Delboeuf","illusion_strength":0.3600000000000001,"illusion_difference":0.8,"block_number":2,"trial_number":2},{"rt":null,"stimulus":"<div style=\"font-size:60px;\">+</div>","response":null,"screen":"fixation","trial_type":"html-keyboard-response","trial_index":85,"time_elapsed":208434,"internal_node_id":"0.0-5.0-2.0-0.2","screen_height":678,"screen_width":1440,"browser":"chrome","browser_version":"103.0.0","mobile":false,"os":"Mac OS","vsync_rate":60.01,"participant_id":"SK_1","trial_duration":903},{"rt":1193,"stimulus":"stimuli/Delboeuf_str1.08_diff0.8.png","response":"arrowleft","screen":"Trial","block":"Delboeuf","correct_response":"arrowleft","trial_type":"image-keyboard-response","trial_index":86,"time_elapsed":209628,"internal_node_id":"0.0-5.0-2.0-1.2","screen_height":678,"screen_width":1440,"browser":"chrome","browser_version":"103.0.0","mobile":false,"os":"Mac OS","vsync_rate":60.01,"participant_id":"SK_1","prestimulus_duration":910,"correct":true,"type":"Delboeuf","illusion_strength":1.0799999999999998,"illusion_difference":0.8,"block_number":2,"trial_number":3},{"rt":null,"stimulus":"<div style=\"font-size:60px;\">+</div>","response":null,"screen":"fixation","trial_type":"html-keyboard-response","trial_index":87,"time_elapsed":210311,"internal_node_id":"0.0-5.0-2.0-0.3","screen_height":678,"screen_width":1440,"browser":"chrome","browser_version":"103.0.0","mobile":false,"os":"Mac OS","vsync_rate":60.01,"participant_id":"SK_1","trial_duration":680},{"rt":841,"stimulus":"stimuli/Delboeuf_str0.36_diff0.08.png","response":"arrowleft","screen":"Trial","block":"Delboeuf","correct_response":"arrowleft","trial_type":"image-keyboard-response","trial_index":88,"time_elapsed":211154,"internal_node_id":"0.0-5.0-2.0-1.3","screen_height":678,"screen_width":1440,"browser":"chrome","browser_version":"103.0.0","mobile":false,"os":"Mac OS","vsync_rate":60.01,"participant_id":"SK_1","prestimulus_duration":683,"correct":true,"type":"Delboeuf","illusion_strength":0.3600000000000001,"illusion_difference":0.08,"block_number":2,"trial_number":4},{"rt":null,"stimulus":"<div style=\"font-size:60px;\">+</div>","response":null,"screen":"fixation","trial_type":"html-keyboard-response","trial_index":89,"time_elapsed":211706,"internal_node_id":"0.0-5.0-2.0-0.4","screen_height":678,"screen_width":1440,"browser":"chrome","browser_version":"103.0.0","mobile":false,"os":"Mac OS","vsync_rate":60.01,"participant_id":"SK_1","trial_duration":545},{"rt":749,"stimulus":"stimuli/Delboeuf_str-0.36_diff0.08.png","response":"arrowright","screen":"Trial","block":"Delboeuf","correct_response":"arrowleft","trial_type":"image-keyboard-response","trial_index":90,"time_elapsed":212456,"internal_node_id":"0.0-5.0-2.0-1.4","screen_height":678,"screen_width":1440,"browser":"chrome","browser_version":"103.0.0","mobile":false,"os":"Mac OS","vsync_rate":60.01,"participant_id":"SK_1","prestimulus_duration":552,"correct":false,"type":"Delboeuf","illusion_strength":-0.3600000000000001,"illusion_difference":0.08,"block_number":2,"trial_number":5},{"rt":null,"stimulus":"<div style=\"font-size:60px;\">+</div>","response":null,"screen":"fixation","trial_type":"html-keyboard-response","trial_index":91,"time_elapsed":213456,"internal_node_id":"0.0-5.0-2.0-0.5","screen_height":678,"screen_width":1440,"browser":"chrome","browser_version":"103.0.0","mobile":false,"os":"Mac OS","vsync_rate":60.01,"participant_id":"SK_1","trial_duration":993},{"rt":778,"stimulus":"stimuli/Delboeuf_str-0.36_diff0.8.png","response":"arrowleft","screen":"Trial","block":"Delboeuf","correct_response":"arrowleft","trial_type":"image-keyboard-response","trial_index":92,"time_elapsed":214235,"internal_node_id":"0.0-5.0-2.0-1.5","screen_height":678,"screen_width":1440,"browser":"chrome","browser_version":"103.0.0","mobile":false,"os":"Mac OS","vsync_rate":60.01,"participant_id":"SK_1","prestimulus_duration":1000,"correct":true,"type":"Delboeuf","illusion_strength":-0.3600000000000001,"illusion_difference":0.8,"block_number":2,"trial_number":6},{"rt":null,"stimulus":"<div style=\"font-size:60px;\">+</div>","response":null,"screen":"fixation","trial_type":"html-keyboard-response","trial_index":93,"time_elapsed":214998,"internal_node_id":"0.0-5.0-2.0-0.6","screen_height":678,"screen_width":1440,"browser":"chrome","browser_version":"103.0.0","mobile":false,"os":"Mac OS","vsync_rate":60.01,"participant_id":"SK_1","trial_duration":757},{"rt":840,"stimulus":"stimuli/Delboeuf_str-1.8_diff-0.35.png","response":"arrowright","screen":"Trial","block":"Delboeuf","correct_response":"arrowright","trial_type":"image-keyboard-response","trial_index":94,"time_elapsed":215839,"internal_node_id":"0.0-5.0-2.0-1.6","screen_height":678,"screen_width":1440,"browser":"chrome","browser_version":"103.0.0","mobile":false,"os":"Mac OS","vsync_rate":60.01,"participant_id":"SK_1","prestimulus_duration":763,"correct":true,"type":"Delboeuf","illusion_strength":-1.8,"illusion_difference":-0.35000000000000003,"block_number":2,"trial_number":7},{"rt":null,"stimulus":"<div style=\"font-size:60px;\">+</div>","response":null,"screen":"fixation","trial_type":"html-keyboard-response","trial_index":95,"time_elapsed":216605,"internal_node_id":"0.0-5.0-2.0-0.7","screen_height":678,"screen_width":1440,"browser":"chrome","browser_version":"103.0.0","mobile":false,"os":"Mac OS","vsync_rate":60.01,"participant_id":"SK_1","trial_duration":760},{"rt":913,"stimulus":"stimuli/Delboeuf_str-0.36_diff-0.35.png","response":"arrowright","screen":"Trial","block":"Delboeuf","correct_response":"arrowright","trial_type":"image-keyboard-response","trial_index":96,"time_elapsed":217519,"internal_node_id":"0.0-5.0-2.0-1.7","screen_height":678,"screen_width":1440,"browser":"chrome","browser_version":"103.0.0","mobile":false,"os":"Mac OS","vsync_rate":60.01,"participant_id":"SK_1","prestimulus_duration":766,"correct":true,"type":"Delboeuf","illusion_strength":-0.3600000000000001,"illusion_difference":-0.35000000000000003,"block_number":2,"trial_number":8},{"rt":null,"stimulus":"<div style=\"font-size:60px;\">+</div>","response":null,"screen":"fixation","trial_type":"html-keyboard-response","trial_index":97,"time_elapsed":218184,"internal_node_id":"0.0-5.0-2.0-0.8","screen_height":678,"screen_width":1440,"browser":"chrome","browser_version":"103.0.0","mobile":false,"os":"Mac OS","vsync_rate":60.01,"participant_id":"SK_1","trial_duration":658},{"rt":1083,"stimulus":"stimuli/Delboeuf_str1.08_diff-0.8.png","response":"arrowleft","screen":"Trial","block":"Delboeuf","correct_response":"arrowright","trial_type":"image-keyboard-response","trial_index":98,"time_elapsed":219268,"internal_node_id":"0.0-5.0-2.0-1.8","screen_height":678,"screen_width":1440,"browser":"chrome","browser_version":"103.0.0","mobile":false,"os":"Mac OS","vsync_rate":60.01,"participant_id":"SK_1","prestimulus_duration":665,"correct":false,"type":"Delboeuf","illusion_strength":1.0799999999999998,"illusion_difference":-0.8,"block_number":2,"trial_number":9},{"rt":null,"stimulus":"<div style=\"font-size:60px;\">+</div>","response":null,"screen":"fixation","trial_type":"html-keyboard-response","trial_index":99,"time_elapsed":219893,"internal_node_id":"0.0-5.0-2.0-0.9","screen_height":678,"screen_width":1440,"browser":"chrome","browser_version":"103.0.0","mobile":false,"os":"Mac OS","vsync_rate":60.01,"participant_id":"SK_1","trial_duration":618},{"rt":1268,"stimulus":"stimuli/Delboeuf_str1.08_diff0.08.png","response":"arrowright","screen":"Trial","block":"Delboeuf","correct_response":"arrowleft","trial_type":"image-keyboard-response","trial_index":100,"time_elapsed":221162,"internal_node_id":"0.0-5.0-2.0-1.9","screen_height":678,"screen_width":1440,"browser":"chrome","browser_version":"103.0.0","mobile":false,"os":"Mac OS","vsync_rate":60.01,"participant_id":"SK_1","prestimulus_duration":625,"correct":false,"type":"Delboeuf","illusion_strength":1.0799999999999998,"illusion_difference":0.08,"block_number":2,"trial_number":10},{"rt":null,"stimulus":"<div style=\"font-size:60px;\">+</div>","response":null,"screen":"fixation","trial_type":"html-keyboard-response","trial_index":101,"time_elapsed":221427,"internal_node_id":"0.0-5.0-2.0-0.10","screen_height":678,"screen_width":1440,"browser":"chrome","browser_version":"103.0.0","mobile":false,"os":"Mac OS","vsync_rate":60.01,"participant_id":"SK_1","trial_duration":261},{"rt":1935,"stimulus":"stimuli/Delboeuf_str0.36_diff-0.35.png","response":"arrowright","screen":"Trial","block":"Delboeuf","correct_response":"arrowright","trial_type":"image-keyboard-response","trial_index":102,"time_elapsed":223363,"internal_node_id":"0.0-5.0-2.0-1.10","screen_height":678,"screen_width":1440,"browser":"chrome","browser_version":"103.0.0","mobile":false,"os":"Mac OS","vsync_rate":60.01,"participant_id":"SK_1","prestimulus_duration":265,"correct":true,"type":"Delboeuf","illusion_strength":0.3600000000000001,"illusion_difference":-0.35000000000000003,"block_number":2,"trial_number":11},{"rt":null,"stimulus":"<div style=\"font-size:60px;\">+</div>","response":null,"screen":"fixation","trial_type":"html-keyboard-response","trial_index":103,"time_elapsed":224301,"internal_node_id":"0.0-5.0-2.0-0.11","screen_height":678,"screen_width":1440,"browser":"chrome","browser_version":"103.0.0","mobile":false,"os":"Mac OS","vsync_rate":60.01,"participant_id":"SK_1","trial_duration":933},{"rt":771,"stimulus":"stimuli/Delboeuf_str-1.08_diff0.35.png","response":"arrowleft","screen":"Trial","block":"Delboeuf","correct_response":"arrowleft","trial_type":"image-keyboard-response","trial_index":104,"time_elapsed":225073,"internal_node_id":"0.0-5.0-2.0-1.11","screen_height":678,"screen_width":1440,"browser":"chrome","browser_version":"103.0.0","mobile":false,"os":"Mac OS","vsync_rate":60.01,"participant_id":"SK_1","prestimulus_duration":938,"correct":true,"type":"Delboeuf","illusion_strength":-1.08,"illusion_difference":0.35000000000000003,"block_number":2,"trial_number":12},{"rt":null,"stimulus":"<div style=\"font-size:60px;\">+</div>","response":null,"screen":"fixation","trial_type":"html-keyboard-response","trial_index":105,"time_elapsed":225852,"internal_node_id":"0.0-5.0-2.0-0.12","screen_height":678,"screen_width":1440,"browser":"chrome","browser_version":"103.0.0","mobile":false,"os":"Mac OS","vsync_rate":60.01,"participant_id":"SK_1","trial_duration":773},{"rt":1050,"stimulus":"stimuli/Delboeuf_str1.08_diff-0.08.png","response":"arrowleft","screen":"Trial","block":"Delboeuf","correct_response":"arrowright","trial_type":"image-keyboard-response","trial_index":106,"time_elapsed":226904,"internal_node_id":"0.0-5.0-2.0-1.12","screen_height":678,"screen_width":1440,"browser":"chrome","browser_version":"103.0.0","mobile":false,"os":"Mac OS","vsync_rate":60.01,"participant_id":"SK_1","prestimulus_duration":779,"correct":false,"type":"Delboeuf","illusion_strength":1.0799999999999998,"illusion_difference":-0.08,"block_number":2,"trial_number":13},{"rt":null,"stimulus":"<div style=\"font-size:60px;\">+</div>","response":null,"screen":"fixation","trial_type":"html-keyboard-response","trial_index":107,"time_elapsed":227413,"internal_node_id":"0.0-5.0-2.0-0.13","screen_height":678,"screen_width":1440,"browser":"chrome","browser_version":"103.0.0","mobile":false,"os":"Mac OS","vsync_rate":60.01,"participant_id":"SK_1","trial_duration":507},{"rt":906,"stimulus":"stimuli/Delboeuf_str-0.36_diff-0.8.png","response":"arrowright","screen":"Trial","block":"Delboeuf","correct_response":"arrowright","trial_type":"image-keyboard-response","trial_index":108,"time_elapsed":228321,"internal_node_id":"0.0-5.0-2.0-1.13","screen_height":678,"screen_width":1440,"browser":"chrome","browser_version":"103.0.0","mobile":false,"os":"Mac OS","vsync_rate":60.01,"participant_id":"SK_1","prestimulus_duration":509,"correct":true,"type":"Delboeuf","illusion_strength":-0.3600000000000001,"illusion_difference":-0.8,"block_number":2,"trial_number":14},{"rt":null,"stimulus":"<div style=\"font-size:60px;\">+</div>","response":null,"screen":"fixation","trial_type":"html-keyboard-response","trial_index":109,"time_elapsed":229278,"internal_node_id":"0.0-5.0-2.0-0.14","screen_height":678,"screen_width":1440,"browser":"chrome","browser_version":"103.0.0","mobile":false,"os":"Mac OS","vsync_rate":60.01,"participant_id":"SK_1","trial_duration":951},{"rt":1190,"stimulus":"stimuli/Delboeuf_str-1.08_diff-0.08.png","response":"arrowright","screen":"Trial","block":"Delboeuf","correct_response":"arrowright","trial_type":"image-keyboard-response","trial_index":110,"time_elapsed":230469,"internal_node_id":"0.0-5.0-2.0-1.14","screen_height":678,"screen_width":1440,"browser":"chrome","browser_version":"103.0.0","mobile":false,"os":"Mac OS","vsync_rate":60.01,"participant_id":"SK_1","prestimulus_duration":957,"correct":true,"type":"Delboeuf","illusion_strength":-1.08,"illusion_difference":-0.08,"block_number":2,"trial_number":15},{"rt":null,"stimulus":"<div style=\"font-size:60px;\">+</div>","response":null,"screen":"fixation","trial_type":"html-keyboard-response","trial_index":111,"time_elapsed":231453,"internal_node_id":"0.0-5.0-2.0-0.15","screen_height":678,"screen_width":1440,"browser":"chrome","browser_version":"103.0.0","mobile":false,"os":"Mac OS","vsync_rate":60.01,"participant_id":"SK_1","trial_duration":978},{"rt":1313,"stimulus":"stimuli/Delboeuf_str0.36_diff-0.08.png","response":"arrowleft","screen":"Trial","block":"Delboeuf","correct_response":"arrowright","trial_type":"image-keyboard-response","trial_index":112,"time_elapsed":232767,"internal_node_id":"0.0-5.0-2.0-1.15","screen_height":678,"screen_width":1440,"browser":"chrome","browser_version":"103.0.0","mobile":false,"os":"Mac OS","vsync_rate":60.01,"participant_id":"SK_1","prestimulus_duration":984,"correct":false,"type":"Delboeuf","illusion_strength":0.3600000000000001,"illusion_difference":-0.08,"block_number":2,"trial_number":16},{"rt":null,"stimulus":"<div style=\"font-size:60px;\">+</div>","response":null,"screen":"fixation","trial_type":"html-keyboard-response","trial_index":113,"time_elapsed":233093,"internal_node_id":"0.0-5.0-2.0-0.16","screen_height":678,"screen_width":1440,"browser":"chrome","browser_version":"103.0.0","mobile":false,"os":"Mac OS","vsync_rate":60.01,"participant_id":"SK_1","trial_duration":320},{"rt":1314,"stimulus":"stimuli/Delboeuf_str1.8_diff-0.35.png","response":"arrowleft","screen":"Trial","block":"Delboeuf","correct_response":"arrowright","trial_type":"image-keyboard-response","trial_index":114,"time_elapsed":234408,"internal_node_id":"0.0-5.0-2.0-1.16","screen_height":678,"screen_width":1440,"browser":"chrome","browser_version":"103.0.0","mobile":false,"os":"Mac OS","vsync_rate":60.01,"participant_id":"SK_1","prestimulus_duration":326,"correct":false,"type":"Delboeuf","illusion_strength":1.8,"illusion_difference":-0.35000000000000003,"block_number":2,"trial_number":17},{"rt":null,"stimulus":"<div style=\"font-size:60px;\">+</div>","response":null,"screen":"fixation","trial_type":"html-keyboard-response","trial_index":115,"time_elapsed":234735,"internal_node_id":"0.0-5.0-2.0-0.17","screen_height":678,"screen_width":1440,"browser":"chrome","browser_version":"103.0.0","mobile":false,"os":"Mac OS","vsync_rate":60.01,"participant_id":"SK_1","trial_duration":320},{"rt":1241,"stimulus":"stimuli/Delboeuf_str-1.8_diff0.08.png","response":"arrowleft","screen":"Trial","block":"Delboeuf","correct_response":"arrowleft","trial_type":"image-keyboard-response","trial_index":116,"time_elapsed":235977,"internal_node_id":"0.0-5.0-2.0-1.17","screen_height":678,"screen_width":1440,"browser":"chrome","browser_version":"103.0.0","mobile":false,"os":"Mac OS","vsync_rate":60.01,"participant_id":"SK_1","prestimulus_duration":327,"correct":true,"type":"Delboeuf","illusion_strength":-1.8,"illusion_difference":0.08,"block_number":2,"trial_number":18},{"rt":null,"stimulus":"<div style=\"font-size:60px;\">+</div>","response":null,"screen":"fixation","trial_type":"html-keyboard-response","trial_index":117,"time_elapsed":236891,"internal_node_id":"0.0-5.0-2.0-0.18","screen_height":678,"screen_width":1440,"browser":"chrome","browser_version":"103.0.0","mobile":false,"os":"Mac OS","vsync_rate":60.01,"participant_id":"SK_1","trial_duration":909},{"rt":1213,"stimulus":"stimuli/Delboeuf_str1.08_diff0.35.png","response":"arrowright","screen":"Trial","block":"Delboeuf","correct_response":"arrowleft","trial_type":"image-keyboard-response","trial_index":118,"time_elapsed":238105,"internal_node_id":"0.0-5.0-2.0-1.18","screen_height":678,"screen_width":1440,"browser":"chrome","browser_version":"103.0.0","mobile":false,"os":"Mac OS","vsync_rate":60.01,"participant_id":"SK_1","prestimulus_duration":914,"correct":false,"type":"Delboeuf","illusion_strength":1.0799999999999998,"illusion_difference":0.35000000000000003,"block_number":2,"trial_number":19},{"rt":null,"stimulus":"<div style=\"font-size:60px;\">+</div>","response":null,"screen":"fixation","trial_type":"html-keyboard-response","trial_index":119,"time_elapsed":238720,"internal_node_id":"0.0-5.0-2.0-0.19","screen_height":678,"screen_width":1440,"browser":"chrome","browser_version":"103.0.0","mobile":false,"os":"Mac OS","vsync_rate":60.01,"participant_id":"SK_1","trial_duration":608},{"rt":1125,"stimulus":"stimuli/Delboeuf_str1.8_diff0.08.png","response":"arrowright","screen":"Trial","block":"Delboeuf","correct_response":"arrowleft","trial_type":"image-keyboard-response","trial_index":120,"time_elapsed":239847,"internal_node_id":"0.0-5.0-2.0-1.19","screen_height":678,"screen_width":1440,"browser":"chrome","browser_version":"103.0.0","mobile":false,"os":"Mac OS","vsync_rate":60.01,"participant_id":"SK_1","prestimulus_duration":615,"correct":false,"type":"Delboeuf","illusion_strength":1.8,"illusion_difference":0.08,"block_number":2,"trial_number":20},{"rt":null,"stimulus":"<div style=\"font-size:60px;\">+</div>","response":null,"screen":"fixation","trial_type":"html-keyboard-response","trial_index":121,"time_elapsed":240587,"internal_node_id":"0.0-5.0-2.0-0.20","screen_height":678,"screen_width":1440,"browser":"chrome","browser_version":"103.0.0","mobile":false,"os":"Mac OS","vsync_rate":60.01,"participant_id":"SK_1","trial_duration":734},{"rt":1341,"stimulus":"stimuli/Delboeuf_str1.8_diff0.35.png","response":"arrowright","screen":"Trial","block":"Delboeuf","correct_response":"arrowleft","trial_type":"image-keyboard-response","trial_index":122,"time_elapsed":241929,"internal_node_id":"0.0-5.0-2.0-1.20","screen_height":678,"screen_width":1440,"browser":"chrome","browser_version":"103.0.0","mobile":false,"os":"Mac OS","vsync_rate":60.01,"participant_id":"SK_1","prestimulus_duration":740,"correct":false,"type":"Delboeuf","illusion_strength":1.8,"illusion_difference":0.35000000000000003,"block_number":2,"trial_number":21},{"rt":null,"stimulus":"<div style=\"font-size:60px;\">+</div>","response":null,"screen":"fixation","trial_type":"html-keyboard-response","trial_index":123,"time_elapsed":242632,"internal_node_id":"0.0-5.0-2.0-0.21","screen_height":678,"screen_width":1440,"browser":"chrome","browser_version":"103.0.0","mobile":false,"os":"Mac OS","vsync_rate":60.01,"participant_id":"SK_1","trial_duration":696},{"rt":1975,"stimulus":"stimuli/Delboeuf_str1.8_diff-0.8.png","response":"arrowright","screen":"Trial","block":"Delboeuf","correct_response":"arrowright","trial_type":"image-keyboard-response","trial_index":124,"time_elapsed":244608,"internal_node_id":"0.0-5.0-2.0-1.21","screen_height":678,"screen_width":1440,"browser":"chrome","browser_version":"103.0.0","mobile":false,"os":"Mac OS","vsync_rate":60.01,"participant_id":"SK_1","prestimulus_duration":703,"correct":true,"type":"Delboeuf","illusion_strength":1.8,"illusion_difference":-0.8,"block_number":2,"trial_number":22},{"rt":null,"stimulus":"<div style=\"font-size:60px;\">+</div>","response":null,"screen":"fixation","trial_type":"html-keyboard-response","trial_index":125,"time_elapsed":245420,"internal_node_id":"0.0-5.0-2.0-0.22","screen_height":678,"screen_width":1440,"browser":"chrome","browser_version":"103.0.0","mobile":false,"os":"Mac OS","vsync_rate":60.01,"participant_id":"SK_1","trial_duration":805},{"rt":693,"stimulus":"stimuli/Delboeuf_str-1.8_diff0.8.png","response":"arrowleft","screen":"Trial","block":"Delboeuf","correct_response":"arrowleft","trial_type":"image-keyboard-response","trial_index":126,"time_elapsed":246114,"internal_node_id":"0.0-5.0-2.0-1.22","screen_height":678,"screen_width":1440,"browser":"chrome","browser_version":"103.0.0","mobile":false,"os":"Mac OS","vsync_rate":60.01,"participant_id":"SK_1","prestimulus_duration":812,"correct":true,"type":"Delboeuf","illusion_strength":-1.8,"illusion_difference":0.8,"block_number":2,"trial_number":23},{"rt":null,"stimulus":"<div style=\"font-size:60px;\">+</div>","response":null,"screen":"fixation","trial_type":"html-keyboard-response","trial_index":127,"time_elapsed":246587,"internal_node_id":"0.0-5.0-2.0-0.23","screen_height":678,"screen_width":1440,"browser":"chrome","browser_version":"103.0.0","mobile":false,"os":"Mac OS","vsync_rate":60.01,"participant_id":"SK_1","trial_duration":466},{"rt":766,"stimulus":"stimuli/Delboeuf_str-1.08_diff-0.8.png","response":"arrowright","screen":"Trial","block":"Delboeuf","correct_response":"arrowright","trial_type":"image-keyboard-response","trial_index":128,"time_elapsed":247354,"internal_node_id":"0.0-5.0-2.0-1.23","screen_height":678,"screen_width":1440,"browser":"chrome","browser_version":"103.0.0","mobile":false,"os":"Mac OS","vsync_rate":60.01,"participant_id":"SK_1","prestimulus_duration":473,"correct":true,"type":"Delboeuf","illusion_strength":-1.08,"illusion_difference":-0.8,"block_number":2,"trial_number":24},{"rt":null,"stimulus":"<div style=\"font-size:60px;\">+</div>","response":null,"screen":"fixation","trial_type":"html-keyboard-response","trial_index":129,"time_elapsed":247845,"internal_node_id":"0.0-5.0-2.0-0.24","screen_height":678,"screen_width":1440,"browser":"chrome","browser_version":"103.0.0","mobile":false,"os":"Mac OS","vsync_rate":60.01,"participant_id":"SK_1","trial_duration":484},{"rt":850,"stimulus":"stimuli/Delboeuf_str-1.8_diff-0.8.png","response":"arrowright","screen":"Trial","block":"Delboeuf","correct_response":"arrowright","trial_type":"image-keyboard-response","trial_index":130,"time_elapsed":248697,"internal_node_id":"0.0-5.0-2.0-1.24","screen_height":678,"screen_width":1440,"browser":"chrome","browser_version":"103.0.0","mobile":false,"os":"Mac OS","vsync_rate":60.01,"participant_id":"SK_1","prestimulus_duration":491,"correct":true,"type":"Delboeuf","illusion_strength":-1.8,"illusion_difference":-0.8,"block_number":2,"trial_number":25},{"rt":null,"stimulus":"<div style=\"font-size:60px;\">+</div>","response":null,"screen":"fixation","trial_type":"html-keyboard-response","trial_index":131,"time_elapsed":249370,"internal_node_id":"0.0-5.0-2.0-0.25","screen_height":678,"screen_width":1440,"browser":"chrome","browser_version":"103.0.0","mobile":false,"os":"Mac OS","vsync_rate":60.01,"participant_id":"SK_1","trial_duration":670},{"rt":1925,"stimulus":"stimuli/Delboeuf_str0.36_diff0.35.png","response":"arrowleft","screen":"Trial","block":"Delboeuf","correct_response":"arrowleft","trial_type":"image-keyboard-response","trial_index":132,"time_elapsed":251296,"internal_node_id":"0.0-5.0-2.0-1.25","screen_height":678,"screen_width":1440,"browser":"chrome","browser_version":"103.0.0","mobile":false,"os":"Mac OS","vsync_rate":60.01,"participant_id":"SK_1","prestimulus_duration":673,"correct":true,"type":"Delboeuf","illusion_strength":0.3600000000000001,"illusion_difference":0.35000000000000003,"block_number":2,"trial_number":26},{"rt":null,"stimulus":"<div style=\"font-size:60px;\">+</div>","response":null,"screen":"fixation","trial_type":"html-keyboard-response","trial_index":133,"time_elapsed":251835,"internal_node_id":"0.0-5.0-2.0-0.26","screen_height":678,"screen_width":1440,"browser":"chrome","browser_version":"103.0.0","mobile":false,"os":"Mac OS","vsync_rate":60.01,"participant_id":"SK_1","trial_duration":532},{"rt":879,"stimulus":"stimuli/Delboeuf_str-1.8_diff0.35.png","response":"arrowleft","screen":"Trial","block":"Delboeuf","correct_response":"arrowleft","trial_type":"image-keyboard-response","trial_index":134,"time_elapsed":252715,"internal_node_id":"0.0-5.0-2.0-1.26","screen_height":678,"screen_width":1440,"browser":"chrome","browser_version":"103.0.0","mobile":false,"os":"Mac OS","vsync_rate":60.01,"participant_id":"SK_1","prestimulus_duration":539,"correct":true,"type":"Delboeuf","illusion_strength":-1.8,"illusion_difference":0.35000000000000003,"block_number":2,"trial_number":27},{"rt":null,"stimulus":"<div style=\"font-size:60px;\">+</div>","response":null,"screen":"fixation","trial_type":"html-keyboard-response","trial_index":135,"time_elapsed":253621,"internal_node_id":"0.0-5.0-2.0-0.27","screen_height":678,"screen_width":1440,"browser":"chrome","browser_version":"103.0.0","mobile":false,"os":"Mac OS","vsync_rate":60.01,"participant_id":"SK_1","trial_duration":899},{"rt":1032,"stimulus":"stimuli/Delboeuf_str0.36_diff-0.8.png","response":"arrowright","screen":"Trial","block":"Delboeuf","correct_response":"arrowright","trial_type":"image-keyboard-response","trial_index":136,"time_elapsed":254659,"internal_node_id":"0.0-5.0-2.0-1.27","screen_height":678,"screen_width":1440,"browser":"chrome","browser_version":"103.0.0","mobile":false,"os":"Mac OS","vsync_rate":60.01,"participant_id":"SK_1","prestimulus_duration":906,"correct":true,"type":"Delboeuf","illusion_strength":0.3600000000000001,"illusion_difference":-0.8,"block_number":2,"trial_number":28},{"rt":null,"stimulus":"<div style=\"font-size:60px;\">+</div>","response":null,"screen":"fixation","trial_type":"html-keyboard-response","trial_index":137,"time_elapsed":255528,"internal_node_id":"0.0-5.0-2.0-0.28","screen_height":678,"screen_width":1440,"browser":"chrome","browser_version":"103.0.0","mobile":false,"os":"Mac OS","vsync_rate":60.01,"participant_id":"SK_1","trial_duration":866},{"rt":949,"stimulus":"stimuli/Delboeuf_str-0.36_diff-0.08.png","response":"arrowright","screen":"Trial","block":"Delboeuf","correct_response":"arrowright","trial_type":"image-keyboard-response","trial_index":138,"time_elapsed":256479,"internal_node_id":"0.0-5.0-2.0-1.28","screen_height":678,"screen_width":1440,"browser":"chrome","browser_version":"103.0.0","mobile":false,"os":"Mac OS","vsync_rate":60.01,"participant_id":"SK_1","prestimulus_duration":869,"correct":true,"type":"Delboeuf","illusion_strength":-0.3600000000000001,"illusion_difference":-0.08,"block_number":2,"trial_number":29},{"rt":null,"stimulus":"<div style=\"font-size:60px;\">+</div>","response":null,"screen":"fixation","trial_type":"html-keyboard-response","trial_index":139,"time_elapsed":257202,"internal_node_id":"0.0-5.0-2.0-0.29","screen_height":678,"screen_width":1440,"browser":"chrome","browser_version":"103.0.0","mobile":false,"os":"Mac OS","vsync_rate":60.01,"participant_id":"SK_1","trial_duration":716},{"rt":852,"stimulus":"stimuli/Delboeuf_str1.8_diff-0.08.png","response":"arrowleft","screen":"Trial","block":"Delboeuf","correct_response":"arrowright","trial_type":"image-keyboard-response","trial_index":140,"time_elapsed":258055,"internal_node_id":"0.0-5.0-2.0-1.29","screen_height":678,"screen_width":1440,"browser":"chrome","browser_version":"103.0.0","mobile":false,"os":"Mac OS","vsync_rate":60.01,"participant_id":"SK_1","prestimulus_duration":723,"correct":false,"type":"Delboeuf","illusion_strength":1.8,"illusion_difference":-0.08,"block_number":2,"trial_number":30},{"rt":null,"stimulus":"<div style=\"font-size:60px;\">+</div>","response":null,"screen":"fixation","trial_type":"html-keyboard-response","trial_index":141,"time_elapsed":258883,"internal_node_id":"0.0-5.0-2.0-0.30","screen_height":678,"screen_width":1440,"browser":"chrome","browser_version":"103.0.0","mobile":false,"os":"Mac OS","vsync_rate":60.01,"participant_id":"SK_1","trial_duration":822},{"rt":798,"stimulus":"stimuli/Delboeuf_str-1.08_diff-0.35.png","response":"arrowright","screen":"Trial","block":"Delboeuf","correct_response":"arrowright","trial_type":"image-keyboard-response","trial_index":142,"time_elapsed":259683,"internal_node_id":"0.0-5.0-2.0-1.30","screen_height":678,"screen_width":1440,"browser":"chrome","browser_version":"103.0.0","mobile":false,"os":"Mac OS","vsync_rate":60.01,"participant_id":"SK_1","prestimulus_duration":828,"correct":true,"type":"Delboeuf","illusion_strength":-1.08,"illusion_difference":-0.35000000000000003,"block_number":2,"trial_number":31},{"rt":null,"stimulus":"<div style=\"font-size:60px;\">+</div>","response":null,"screen":"fixation","trial_type":"html-keyboard-response","trial_index":143,"time_elapsed":260526,"internal_node_id":"0.0-5.0-2.0-0.31","screen_height":678,"screen_width":1440,"browser":"chrome","browser_version":"103.0.0","mobile":false,"os":"Mac OS","vsync_rate":60.01,"participant_id":"SK_1","trial_duration":838},{"rt":746,"stimulus":"stimuli/Delboeuf_str-0.36_diff0.35.png","response":"arrowleft","screen":"Trial","block":"Delboeuf","correct_response":"arrowleft","trial_type":"image-keyboard-response","trial_index":144,"time_elapsed":261272,"internal_node_id":"0.0-5.0-2.0-1.31","screen_height":678,"screen_width":1440,"browser":"chrome","browser_version":"103.0.0","mobile":false,"os":"Mac OS","vsync_rate":60.01,"participant_id":"SK_1","prestimulus_duration":843,"correct":true,"type":"Delboeuf","illusion_strength":-0.3600000000000001,"illusion_difference":0.35000000000000003,"block_number":2,"trial_number":32},{"rt":null,"stimulus":"<div style=\"font-size:60px;\">+</div>","response":null,"screen":"fixation","trial_type":"html-keyboard-response","trial_index":145,"time_elapsed":261537,"internal_node_id":"0.0-5.0-2.0-0.32","screen_height":678,"screen_width":1440,"browser":"chrome","browser_version":"103.0.0","mobile":false,"os":"Mac OS","vsync_rate":60.01,"participant_id":"SK_1","trial_duration":258},{"rt":901,"stimulus":"stimuli/Delboeuf_str-1.08_diff0.8.png","response":"arrowleft","screen":"Trial","block":"Delboeuf","correct_response":"arrowleft","trial_type":"image-keyboard-response","trial_index":146,"time_elapsed":262439,"internal_node_id":"0.0-5.0-2.0-1.32","screen_height":678,"screen_width":1440,"browser":"chrome","browser_version":"103.0.0","mobile":false,"os":"Mac OS","vsync_rate":60.01,"participant_id":"SK_1","prestimulus_duration":265,"correct":true,"type":"Delboeuf","illusion_strength":-1.08,"illusion_difference":0.8,"block_number":2,"trial_number":33},{"rt":null,"stimulus":"<div style=\"font-size:60px;\">+</div>","response":null,"screen":"fixation","trial_type":"html-keyboard-response","trial_index":147,"time_elapsed":263121,"internal_node_id":"0.0-5.0-2.0-0.33","screen_height":678,"screen_width":1440,"browser":"chrome","browser_version":"103.0.0","mobile":false,"os":"Mac OS","vsync_rate":60.01,"participant_id":"SK_1","trial_duration":675},{"rt":928,"stimulus":"stimuli/Delboeuf_str1.08_diff-0.35.png","response":"arrowright","screen":"Trial","block":"Delboeuf","correct_response":"arrowright","trial_type":"image-keyboard-response","trial_index":148,"time_elapsed":264050,"internal_node_id":"0.0-5.0-2.0-1.33","screen_height":678,"screen_width":1440,"browser":"chrome","browser_version":"103.0.0","mobile":false,"os":"Mac OS","vsync_rate":60.01,"participant_id":"SK_1","prestimulus_duration":682,"correct":true,"type":"Delboeuf","illusion_strength":1.0799999999999998,"illusion_difference":-0.35000000000000003,"block_number":2,"trial_number":34},{"rt":null,"stimulus":"<div style=\"font-size:60px;\">+</div>","response":null,"screen":"fixation","trial_type":"html-keyboard-response","trial_index":149,"time_elapsed":264533,"internal_node_id":"0.0-5.0-2.0-0.34","screen_height":678,"screen_width":1440,"browser":"chrome","browser_version":"103.0.0","mobile":false,"os":"Mac OS","vsync_rate":60.01,"participant_id":"SK_1","trial_duration":476},{"rt":1132,"stimulus":"stimuli/Delboeuf_str-1.08_diff0.08.png","response":"arrowleft","screen":"Trial","block":"Delboeuf","correct_response":"arrowleft","trial_type":"image-keyboard-response","trial_index":150,"time_elapsed":265667,"internal_node_id":"0.0-5.0-2.0-1.34","screen_height":678,"screen_width":1440,"browser":"chrome","browser_version":"103.0.0","mobile":false,"os":"Mac OS","vsync_rate":60.01,"participant_id":"SK_1","prestimulus_duration":483,"correct":true,"type":"Delboeuf","illusion_strength":-1.08,"illusion_difference":0.08,"block_number":2,"trial_number":35},{"rt":null,"stimulus":"<div style=\"font-size:60px;\">+</div>","response":null,"screen":"fixation","trial_type":"html-keyboard-response","trial_index":151,"time_elapsed":266507,"internal_node_id":"0.0-5.0-2.0-0.35","screen_height":678,"screen_width":1440,"browser":"chrome","browser_version":"103.0.0","mobile":false,"os":"Mac OS","vsync_rate":60.01,"participant_id":"SK_1","trial_duration":834},{"rt":916,"stimulus":"stimuli/Delboeuf_str1.8_diff0.8.png","response":"arrowleft","screen":"Trial","block":"Delboeuf","correct_response":"arrowleft","trial_type":"image-keyboard-response","trial_index":152,"time_elapsed":267425,"internal_node_id":"0.0-5.0-2.0-1.35","screen_height":678,"screen_width":1440,"browser":"chrome","browser_version":"103.0.0","mobile":false,"os":"Mac OS","vsync_rate":60.01,"participant_id":"SK_1","prestimulus_duration":840,"correct":true,"type":"Delboeuf","illusion_strength":1.8,"illusion_difference":0.8,"block_number":2,"trial_number":36},{"rt":1265,"stimulus":"<p>Your score for this illusion is <p style=\"color: black; font-size: 48px; font-weight: bold;\">3564</p><hr><hr><p>Can you do better in the next illusion?</p>","response":0,"screen":"block_results","trial_type":"html-button-response","trial_index":153,"time_elapsed":268695,"internal_node_id":"0.0-5.0-3.0","screen_height":678,"screen_width":1440,"browser":"chrome","browser_version":"103.0.0","mobile":false,"os":"Mac OS","vsync_rate":60.01,"participant_id":"SK_1"},{"success":true,"timeout":false,"failed_images":[],"failed_audio":[],"failed_video":[],"trial_type":"preload","trial_index":154,"time_elapsed":268698,"internal_node_id":"0.0-6.0-0.0","screen_height":678,"screen_width":1440,"browser":"chrome","browser_version":"103.0.0","mobile":false,"os":"Mac OS","vsync_rate":60.01,"participant_id":"SK_1"},{"rt":6250,"stimulus":"<p><b>Part 3</b></p><p>In this part, one vertical red line will appear in a square.</p><p>Your task is to tell towards <b>which direction</b> is the red line leaning, as fast as you can, and without making errors.</p><p>Don't get distracted by the black square!</p><p>Press <b>the LEFT or the RIGHT arrow</b> to indicate the <b>direction where the red line is leaning towards.</b></p><div style='float: center'><img src='utils/stimuli_demo/RodFrame_Demo.png' height='300'></img><p><img src='utils/answer/answer_leftright_keyboard.PNG' height='150'></img></p><p class='small'>In this example, the correct answer is the <b>LEFT arrow</b>.</p></div><p>Are you ready? <b>Press ENTER to start</b></p>","response":"enter","trial_type":"html-keyboard-response","trial_index":155,"time_elapsed":274949,"internal_node_id":"0.0-6.0-1.0","screen_height":678,"screen_width":1440,"browser":"chrome","browser_version":"103.0.0","mobile":false,"os":"Mac OS","vsync_rate":60.01,"participant_id":"SK_1"},{"rt":null,"stimulus":"<div style=\"font-size:60px;\">+</div>","response":null,"screen":"fixation","trial_type":"html-keyboard-response","trial_index":156,"time_elapsed":275824,"internal_node_id":"0.0-6.0-2.0-0.0","screen_height":678,"screen_width":1440,"browser":"chrome","browser_version":"103.0.0","mobile":false,"os":"Mac OS","vsync_rate":60.01,"participant_id":"SK_1","trial_duration":368},{"rt":958,"stimulus":"stimuli/RodFrame_str-27.0_diff-10.0.png","response":"arrowleft","screen":"Trial","block":"RodFrame","correct_response":"arrowleft","trial_type":"image-keyboard-response","trial_index":157,"time_elapsed":276783,"internal_node_id":"0.0-6.0-2.0-1.0","screen_height":678,"screen_width":1440,"browser":"chrome","browser_version":"103.0.0","mobile":false,"os":"Mac OS","vsync_rate":60.01,"participant_id":"SK_1","prestimulus_duration":875,"correct":true,"type":"RodFrame","illusion_strength":-27,"illusion_difference":-10,"block_number":3,"trial_number":1},{"rt":null,"stimulus":"<div style=\"font-size:60px;\">+</div>","response":null,"screen":"fixation","trial_type":"html-keyboard-response","trial_index":158,"time_elapsed":277095,"internal_node_id":"0.0-6.0-2.0-0.1","screen_height":678,"screen_width":1440,"browser":"chrome","browser_version":"103.0.0","mobile":false,"os":"Mac OS","vsync_rate":60.01,"participant_id":"SK_1","trial_duration":306},{"rt":802,"stimulus":"stimuli/RodFrame_str-9.0_diff3.78.png","response":"arrowright","screen":"Trial","block":"RodFrame","correct_response":"arrowright","trial_type":"image-keyboard-response","trial_index":159,"time_elapsed":277899,"internal_node_id":"0.0-6.0-2.0-1.1","screen_height":678,"screen_width":1440,"browser":"chrome","browser_version":"103.0.0","mobile":false,"os":"Mac OS","vsync_rate":60.01,"participant_id":"SK_1","prestimulus_duration":312,"correct":true,"type":"RodFrame","illusion_strength":-9,"illusion_difference":3.7812499999999996,"block_number":3,"trial_number":2},{"rt":null,"stimulus":"<div style=\"font-size:60px;\">+</div>","response":null,"screen":"fixation","trial_type":"html-keyboard-response","trial_index":160,"time_elapsed":278541,"internal_node_id":"0.0-6.0-2.0-0.2","screen_height":678,"screen_width":1440,"browser":"chrome","browser_version":"103.0.0","mobile":false,"os":"Mac OS","vsync_rate":60.01,"participant_id":"SK_1","trial_duration":638},{"rt":732,"stimulus":"stimuli/RodFrame_str-27.0_diff-0.05.png","response":"arrowright","screen":"Trial","block":"RodFrame","correct_response":"arrowleft","trial_type":"image-keyboard-response","trial_index":161,"time_elapsed":279274,"internal_node_id":"0.0-6.0-2.0-1.2","screen_height":678,"screen_width":1440,"browser":"chrome","browser_version":"103.0.0","mobile":false,"os":"Mac OS","vsync_rate":60.01,"participant_id":"SK_1","prestimulus_duration":642,"correct":false,"type":"RodFrame","illusion_strength":-27,"illusion_difference":-0.05,"block_number":3,"trial_number":3},{"rt":null,"stimulus":"<div style=\"font-size:60px;\">+</div>","response":null,"screen":"fixation","trial_type":"html-keyboard-response","trial_index":162,"time_elapsed":280151,"internal_node_id":"0.0-6.0-2.0-0.3","screen_height":678,"screen_width":1440,"browser":"chrome","browser_version":"103.0.0","mobile":false,"os":"Mac OS","vsync_rate":60.01,"participant_id":"SK_1","trial_duration":870},{"rt":1727,"stimulus":"stimuli/RodFrame_str45.0_diff-0.05.png","response":"arrowleft","screen":"Trial","block":"RodFrame","correct_response":"arrowleft","trial_type":"image-keyboard-response","trial_index":163,"time_elapsed":281879,"internal_node_id":"0.0-6.0-2.0-1.3","screen_height":678,"screen_width":1440,"browser":"chrome","browser_version":"103.0.0","mobile":false,"os":"Mac OS","vsync_rate":60.01,"participant_id":"SK_1","prestimulus_duration":877,"correct":true,"type":"RodFrame","illusion_strength":45,"illusion_difference":-0.05,"block_number":3,"trial_number":4},{"rt":null,"stimulus":"<div style=\"font-size:60px;\">+</div>","response":null,"screen":"fixation","trial_type":"html-keyboard-response","trial_index":164,"time_elapsed":282390,"internal_node_id":"0.0-6.0-2.0-0.4","screen_height":678,"screen_width":1440,"browser":"chrome","browser_version":"103.0.0","mobile":false,"os":"Mac OS","vsync_rate":60.01,"participant_id":"SK_1","trial_duration":508},{"rt":778,"stimulus":"stimuli/RodFrame_str45.0_diff-3.78.png","response":"arrowleft","screen":"Trial","block":"RodFrame","correct_response":"arrowleft","trial_type":"image-keyboard-response","trial_index":165,"time_elapsed":283169,"internal_node_id":"0.0-6.0-2.0-1.4","screen_height":678,"screen_width":1440,"browser":"chrome","browser_version":"103.0.0","mobile":false,"os":"Mac OS","vsync_rate":60.01,"participant_id":"SK_1","prestimulus_duration":511,"correct":true,"type":"RodFrame","illusion_strength":45,"illusion_difference":-3.7812499999999996,"block_number":3,"trial_number":5},{"rt":null,"stimulus":"<div style=\"font-size:60px;\">+</div>","response":null,"screen":"fixation","trial_type":"html-keyboard-response","trial_index":166,"time_elapsed":284086,"internal_node_id":"0.0-6.0-2.0-0.5","screen_height":678,"screen_width":1440,"browser":"chrome","browser_version":"103.0.0","mobile":false,"os":"Mac OS","vsync_rate":60.01,"participant_id":"SK_1","trial_duration":914},{"rt":668,"stimulus":"stimuli/RodFrame_str45.0_diff3.78.png","response":"arrowright","screen":"Trial","block":"RodFrame","correct_response":"arrowright","trial_type":"image-keyboard-response","trial_index":167,"time_elapsed":284755,"internal_node_id":"0.0-6.0-2.0-1.5","screen_height":678,"screen_width":1440,"browser":"chrome","browser_version":"103.0.0","mobile":false,"os":"Mac OS","vsync_rate":60.01,"participant_id":"SK_1","prestimulus_duration":917,"correct":true,"type":"RodFrame","illusion_strength":45,"illusion_difference":3.7812499999999996,"block_number":3,"trial_number":6},{"rt":null,"stimulus":"<div style=\"font-size:60px;\">+</div>","response":null,"screen":"fixation","trial_type":"html-keyboard-response","trial_index":168,"time_elapsed":285541,"internal_node_id":"0.0-6.0-2.0-0.6","screen_height":678,"screen_width":1440,"browser":"chrome","browser_version":"103.0.0","mobile":false,"os":"Mac OS","vsync_rate":60.01,"participant_id":"SK_1","trial_duration":779},{"rt":845,"stimulus":"stimuli/RodFrame_str27.0_diff0.05.png","response":"arrowleft","screen":"Trial","block":"RodFrame","correct_response":"arrowright","trial_type":"image-keyboard-response","trial_index":169,"time_elapsed":286387,"internal_node_id":"0.0-6.0-2.0-1.6","screen_height":678,"screen_width":1440,"browser":"chrome","browser_version":"103.0.0","mobile":false,"os":"Mac OS","vsync_rate":60.01,"participant_id":"SK_1","prestimulus_duration":786,"correct":false,"type":"RodFrame","illusion_strength":27,"illusion_difference":0.05,"block_number":3,"trial_number":7},{"rt":null,"stimulus":"<div style=\"font-size:60px;\">+</div>","response":null,"screen":"fixation","trial_type":"html-keyboard-response","trial_index":170,"time_elapsed":286951,"internal_node_id":"0.0-6.0-2.0-0.7","screen_height":678,"screen_width":1440,"browser":"chrome","browser_version":"103.0.0","mobile":false,"os":"Mac OS","vsync_rate":60.01,"participant_id":"SK_1","trial_duration":557},{"rt":644,"stimulus":"stimuli/RodFrame_str45.0_diff10.0.png","response":"arrowright","screen":"Trial","block":"RodFrame","correct_response":"arrowright","trial_type":"image-keyboard-response","trial_index":171,"time_elapsed":287596,"internal_node_id":"0.0-6.0-2.0-1.7","screen_height":678,"screen_width":1440,"browser":"chrome","browser_version":"103.0.0","mobile":false,"os":"Mac OS","vsync_rate":60.01,"participant_id":"SK_1","prestimulus_duration":564,"correct":true,"type":"RodFrame","illusion_strength":45,"illusion_difference":10,"block_number":3,"trial_number":8},{"rt":null,"stimulus":"<div style=\"font-size:60px;\">+</div>","response":null,"screen":"fixation","trial_type":"html-keyboard-response","trial_index":172,"time_elapsed":288017,"internal_node_id":"0.0-6.0-2.0-0.8","screen_height":678,"screen_width":1440,"browser":"chrome","browser_version":"103.0.0","mobile":false,"os":"Mac OS","vsync_rate":60.01,"participant_id":"SK_1","trial_duration":414},{"rt":753,"stimulus":"stimuli/RodFrame_str-9.0_diff-3.78.png","response":"arrowleft","screen":"Trial","block":"RodFrame","correct_response":"arrowleft","trial_type":"image-keyboard-response","trial_index":173,"time_elapsed":288771,"internal_node_id":"0.0-6.0-2.0-1.8","screen_height":678,"screen_width":1440,"browser":"chrome","browser_version":"103.0.0","mobile":false,"os":"Mac OS","vsync_rate":60.01,"participant_id":"SK_1","prestimulus_duration":421,"correct":true,"type":"RodFrame","illusion_strength":-9,"illusion_difference":-3.7812499999999996,"block_number":3,"trial_number":9},{"rt":null,"stimulus":"<div style=\"font-size:60px;\">+</div>","response":null,"screen":"fixation","trial_type":"html-keyboard-response","trial_index":174,"time_elapsed":289157,"internal_node_id":"0.0-6.0-2.0-0.9","screen_height":678,"screen_width":1440,"browser":"chrome","browser_version":"103.0.0","mobile":false,"os":"Mac OS","vsync_rate":60.01,"participant_id":"SK_1","trial_duration":382},{"rt":620,"stimulus":"stimuli/RodFrame_str-9.0_diff-0.05.png","response":"arrowright","screen":"Trial","block":"RodFrame","correct_response":"arrowleft","trial_type":"image-keyboard-response","trial_index":175,"time_elapsed":289778,"internal_node_id":"0.0-6.0-2.0-1.9","screen_height":678,"screen_width":1440,"browser":"chrome","browser_version":"103.0.0","mobile":false,"os":"Mac OS","vsync_rate":60.01,"participant_id":"SK_1","prestimulus_duration":386,"correct":false,"type":"RodFrame","illusion_strength":-9,"illusion_difference":-0.05,"block_number":3,"trial_number":10},{"rt":null,"stimulus":"<div style=\"font-size:60px;\">+</div>","response":null,"screen":"fixation","trial_type":"html-keyboard-response","trial_index":176,"time_elapsed":290141,"internal_node_id":"0.0-6.0-2.0-0.10","screen_height":678,"screen_width":1440,"browser":"chrome","browser_version":"103.0.0","mobile":false,"os":"Mac OS","vsync_rate":60.01,"participant_id":"SK_1","trial_duration":357},{"rt":997,"stimulus":"stimuli/RodFrame_str-45.0_diff0.05.png","response":"arrowright","screen":"Trial","block":"RodFrame","correct_response":"arrowright","trial_type":"image-keyboard-response","trial_index":177,"time_elapsed":291139,"internal_node_id":"0.0-6.0-2.0-1.10","screen_height":678,"screen_width":1440,"browser":"chrome","browser_version":"103.0.0","mobile":false,"os":"Mac OS","vsync_rate":60.01,"participant_id":"SK_1","prestimulus_duration":363,"correct":true,"type":"RodFrame","illusion_strength":-45,"illusion_difference":0.05,"block_number":3,"trial_number":11},{"rt":null,"stimulus":"<div style=\"font-size:60px;\">+</div>","response":null,"screen":"fixation","trial_type":"html-keyboard-response","trial_index":178,"time_elapsed":292108,"internal_node_id":"0.0-6.0-2.0-0.11","screen_height":678,"screen_width":1440,"browser":"chrome","browser_version":"103.0.0","mobile":false,"os":"Mac OS","vsync_rate":60.01,"participant_id":"SK_1","trial_duration":962},{"rt":882,"stimulus":"stimuli/RodFrame_str-27.0_diff10.0.png","response":"arrowright","screen":"Trial","block":"RodFrame","correct_response":"arrowright","trial_type":"image-keyboard-response","trial_index":179,"time_elapsed":292991,"internal_node_id":"0.0-6.0-2.0-1.11","screen_height":678,"screen_width":1440,"browser":"chrome","browser_version":"103.0.0","mobile":false,"os":"Mac OS","vsync_rate":60.01,"participant_id":"SK_1","prestimulus_duration":969,"correct":true,"type":"RodFrame","illusion_strength":-27,"illusion_difference":10,"block_number":3,"trial_number":12},{"rt":null,"stimulus":"<div style=\"font-size:60px;\">+</div>","response":null,"screen":"fixation","trial_type":"html-keyboard-response","trial_index":180,"time_elapsed":293352,"internal_node_id":"0.0-6.0-2.0-0.12","screen_height":678,"screen_width":1440,"browser":"chrome","browser_version":"103.0.0","mobile":false,"os":"Mac OS","vsync_rate":60.01,"participant_id":"SK_1","trial_duration":355},{"rt":746,"stimulus":"stimuli/RodFrame_str9.0_diff-0.05.png","response":"arrowleft","screen":"Trial","block":"RodFrame","correct_response":"arrowleft","trial_type":"image-keyboard-response","trial_index":181,"time_elapsed":294100,"internal_node_id":"0.0-6.0-2.0-1.12","screen_height":678,"screen_width":1440,"browser":"chrome","browser_version":"103.0.0","mobile":false,"os":"Mac OS","vsync_rate":60.01,"participant_id":"SK_1","prestimulus_duration":361,"correct":true,"type":"RodFrame","illusion_strength":9,"illusion_difference":-0.05,"block_number":3,"trial_number":13},{"rt":null,"stimulus":"<div style=\"font-size:60px;\">+</div>","response":null,"screen":"fixation","trial_type":"html-keyboard-response","trial_index":182,"time_elapsed":294824,"internal_node_id":"0.0-6.0-2.0-0.13","screen_height":678,"screen_width":1440,"browser":"chrome","browser_version":"103.0.0","mobile":false,"os":"Mac OS","vsync_rate":60.01,"participant_id":"SK_1","trial_duration":717},{"rt":810,"stimulus":"stimuli/RodFrame_str45.0_diff-10.0.png","response":"arrowleft","screen":"Trial","block":"RodFrame","correct_response":"arrowleft","trial_type":"image-keyboard-response","trial_index":183,"time_elapsed":295635,"internal_node_id":"0.0-6.0-2.0-1.13","screen_height":678,"screen_width":1440,"browser":"chrome","browser_version":"103.0.0","mobile":false,"os":"Mac OS","vsync_rate":60.01,"participant_id":"SK_1","prestimulus_duration":724,"correct":true,"type":"RodFrame","illusion_strength":45,"illusion_difference":-10,"block_number":3,"trial_number":14},{"rt":null,"stimulus":"<div style=\"font-size:60px;\">+</div>","response":null,"screen":"fixation","trial_type":"html-keyboard-response","trial_index":184,"time_elapsed":296477,"internal_node_id":"0.0-6.0-2.0-0.14","screen_height":678,"screen_width":1440,"browser":"chrome","browser_version":"103.0.0","mobile":false,"os":"Mac OS","vsync_rate":60.01,"participant_id":"SK_1","trial_duration":836},{"rt":1031,"stimulus":"stimuli/RodFrame_str-9.0_diff0.05.png","response":"arrowright","screen":"Trial","block":"RodFrame","correct_response":"arrowright","trial_type":"image-keyboard-response","trial_index":185,"time_elapsed":297510,"internal_node_id":"0.0-6.0-2.0-1.14","screen_height":678,"screen_width":1440,"browser":"chrome","browser_version":"103.0.0","mobile":false,"os":"Mac OS","vsync_rate":60.01,"participant_id":"SK_1","prestimulus_duration":842,"correct":true,"type":"RodFrame","illusion_strength":-9,"illusion_difference":0.05,"block_number":3,"trial_number":15},{"rt":null,"stimulus":"<div style=\"font-size:60px;\">+</div>","response":null,"screen":"fixation","trial_type":"html-keyboard-response","trial_index":186,"time_elapsed":297811,"internal_node_id":"0.0-6.0-2.0-0.15","screen_height":678,"screen_width":1440,"browser":"chrome","browser_version":"103.0.0","mobile":false,"os":"Mac OS","vsync_rate":60.01,"participant_id":"SK_1","trial_duration":295},{"rt":2495,"stimulus":"stimuli/RodFrame_str-9.0_diff-10.0.png","response":"arrowleft","screen":"Trial","block":"RodFrame","correct_response":"arrowleft","trial_type":"image-keyboard-response","trial_index":187,"time_elapsed":300307,"internal_node_id":"0.0-6.0-2.0-1.15","screen_height":678,"screen_width":1440,"browser":"chrome","browser_version":"103.0.0","mobile":false,"os":"Mac OS","vsync_rate":60.01,"participant_id":"SK_1","prestimulus_duration":301,"correct":true,"type":"RodFrame","illusion_strength":-9,"illusion_difference":-10,"block_number":3,"trial_number":16},{"rt":null,"stimulus":"<div style=\"font-size:60px;\">+</div>","response":null,"screen":"fixation","trial_type":"html-keyboard-response","trial_index":188,"time_elapsed":301078,"internal_node_id":"0.0-6.0-2.0-0.16","screen_height":678,"screen_width":1440,"browser":"chrome","browser_version":"103.0.0","mobile":false,"os":"Mac OS","vsync_rate":60.01,"participant_id":"SK_1","trial_duration":765},{"rt":916,"stimulus":"stimuli/RodFrame_str27.0_diff3.78.png","response":"arrowright","screen":"Trial","block":"RodFrame","correct_response":"arrowright","trial_type":"image-keyboard-response","trial_index":189,"time_elapsed":301995,"internal_node_id":"0.0-6.0-2.0-1.16","screen_height":678,"screen_width":1440,"browser":"chrome","browser_version":"103.0.0","mobile":false,"os":"Mac OS","vsync_rate":60.01,"participant_id":"SK_1","prestimulus_duration":771,"correct":true,"type":"RodFrame","illusion_strength":27,"illusion_difference":3.7812499999999996,"block_number":3,"trial_number":17},{"rt":null,"stimulus":"<div style=\"font-size:60px;\">+</div>","response":null,"screen":"fixation","trial_type":"html-keyboard-response","trial_index":190,"time_elapsed":302678,"internal_node_id":"0.0-6.0-2.0-0.17","screen_height":678,"screen_width":1440,"browser":"chrome","browser_version":"103.0.0","mobile":false,"os":"Mac OS","vsync_rate":60.01,"participant_id":"SK_1","trial_duration":680},{"rt":2045,"stimulus":"stimuli/RodFrame_str45.0_diff0.05.png","response":"arrowleft","screen":"Trial","block":"RodFrame","correct_response":"arrowright","trial_type":"image-keyboard-response","trial_index":191,"time_elapsed":304724,"internal_node_id":"0.0-6.0-2.0-1.17","screen_height":678,"screen_width":1440,"browser":"chrome","browser_version":"103.0.0","mobile":false,"os":"Mac OS","vsync_rate":60.01,"participant_id":"SK_1","prestimulus_duration":683,"correct":false,"type":"RodFrame","illusion_strength":45,"illusion_difference":0.05,"block_number":3,"trial_number":18},{"rt":null,"stimulus":"<div style=\"font-size:60px;\">+</div>","response":null,"screen":"fixation","trial_type":"html-keyboard-response","trial_index":192,"time_elapsed":305546,"internal_node_id":"0.0-6.0-2.0-0.18","screen_height":678,"screen_width":1440,"browser":"chrome","browser_version":"103.0.0","mobile":false,"os":"Mac OS","vsync_rate":60.01,"participant_id":"SK_1","trial_duration":821},{"rt":979,"stimulus":"stimuli/RodFrame_str9.0_diff10.0.png","response":"arrowright","screen":"Trial","block":"RodFrame","correct_response":"arrowright","trial_type":"image-keyboard-response","trial_index":193,"time_elapsed":306527,"internal_node_id":"0.0-6.0-2.0-1.18","screen_height":678,"screen_width":1440,"browser":"chrome","browser_version":"103.0.0","mobile":false,"os":"Mac OS","vsync_rate":60.01,"participant_id":"SK_1","prestimulus_duration":822,"correct":true,"type":"RodFrame","illusion_strength":9,"illusion_difference":10,"block_number":3,"trial_number":19},{"rt":null,"stimulus":"<div style=\"font-size:60px;\">+</div>","response":null,"screen":"fixation","trial_type":"html-keyboard-response","trial_index":194,"time_elapsed":306961,"internal_node_id":"0.0-6.0-2.0-0.19","screen_height":678,"screen_width":1440,"browser":"chrome","browser_version":"103.0.0","mobile":false,"os":"Mac OS","vsync_rate":60.01,"participant_id":"SK_1","trial_duration":431},{"rt":988,"stimulus":"stimuli/RodFrame_str-45.0_diff-10.0.png","response":"arrowleft","screen":"Trial","block":"RodFrame","correct_response":"arrowleft","trial_type":"image-keyboard-response","trial_index":195,"time_elapsed":307950,"internal_node_id":"0.0-6.0-2.0-1.19","screen_height":678,"screen_width":1440,"browser":"chrome","browser_version":"103.0.0","mobile":false,"os":"Mac OS","vsync_rate":60.01,"participant_id":"SK_1","prestimulus_duration":434,"correct":true,"type":"RodFrame","illusion_strength":-45,"illusion_difference":-10,"block_number":3,"trial_number":20},{"rt":null,"stimulus":"<div style=\"font-size:60px;\">+</div>","response":null,"screen":"fixation","trial_type":"html-keyboard-response","trial_index":196,"time_elapsed":308918,"internal_node_id":"0.0-6.0-2.0-0.20","screen_height":678,"screen_width":1440,"browser":"chrome","browser_version":"103.0.0","mobile":false,"os":"Mac OS","vsync_rate":60.01,"participant_id":"SK_1","trial_duration":961},{"rt":1091,"stimulus":"stimuli/RodFrame_str-27.0_diff0.05.png","response":"arrowright","screen":"Trial","block":"RodFrame","correct_response":"arrowright","trial_type":"image-keyboard-response","trial_index":197,"time_elapsed":310010,"internal_node_id":"0.0-6.0-2.0-1.20","screen_height":678,"screen_width":1440,"browser":"chrome","browser_version":"103.0.0","mobile":false,"os":"Mac OS","vsync_rate":60.01,"participant_id":"SK_1","prestimulus_duration":968,"correct":true,"type":"RodFrame","illusion_strength":-27,"illusion_difference":0.05,"block_number":3,"trial_number":21},{"rt":null,"stimulus":"<div style=\"font-size:60px;\">+</div>","response":null,"screen":"fixation","trial_type":"html-keyboard-response","trial_index":198,"time_elapsed":310703,"internal_node_id":"0.0-6.0-2.0-0.21","screen_height":678,"screen_width":1440,"browser":"chrome","browser_version":"103.0.0","mobile":false,"os":"Mac OS","vsync_rate":60.01,"participant_id":"SK_1","trial_duration":686},{"rt":838,"stimulus":"stimuli/RodFrame_str-9.0_diff10.0.png","response":"arrowright","screen":"Trial","block":"RodFrame","correct_response":"arrowright","trial_type":"image-keyboard-response","trial_index":199,"time_elapsed":311542,"internal_node_id":"0.0-6.0-2.0-1.21","screen_height":678,"screen_width":1440,"browser":"chrome","browser_version":"103.0.0","mobile":false,"os":"Mac OS","vsync_rate":60.01,"participant_id":"SK_1","prestimulus_duration":693,"correct":true,"type":"RodFrame","illusion_strength":-9,"illusion_difference":10,"block_number":3,"trial_number":22},{"rt":null,"stimulus":"<div style=\"font-size:60px;\">+</div>","response":null,"screen":"fixation","trial_type":"html-keyboard-response","trial_index":200,"time_elapsed":312165,"internal_node_id":"0.0-6.0-2.0-0.22","screen_height":678,"screen_width":1440,"browser":"chrome","browser_version":"103.0.0","mobile":false,"os":"Mac OS","vsync_rate":60.01,"participant_id":"SK_1","trial_duration":618},{"rt":3484,"stimulus":"stimuli/RodFrame_str-45.0_diff3.78.png","response":"arrowright","screen":"Trial","block":"RodFrame","correct_response":"arrowright","trial_type":"image-keyboard-response","trial_index":201,"time_elapsed":315650,"internal_node_id":"0.0-6.0-2.0-1.22","screen_height":678,"screen_width":1440,"browser":"chrome","browser_version":"103.0.0","mobile":false,"os":"Mac OS","vsync_rate":60.01,"participant_id":"SK_1","prestimulus_duration":623,"correct":true,"type":"RodFrame","illusion_strength":-45,"illusion_difference":3.7812499999999996,"block_number":3,"trial_number":23},{"rt":null,"s