[{"success":true,"trial_type":"fullscreen","trial_index":0,"time_elapsed":100090,"internal_node_id":"0.0-0.0","screen_height":616,"screen_width":1280,"browser":"chrome","browser_version":"103.0.0","mobile":false,"os":"Windows 10","vsync_rate":60.47,"participant_id":"S00"},{"width":1280,"height":616,"webaudio":true,"browser":"chrome","browser_version":"103.0.0","mobile":false,"os":"Windows 10","fullscreen":true,"vsync_rate":60.47,"webcam":true,"microphone":true,"screen":"browser_info","trial_type":"browser-check","trial_index":1,"time_elapsed":101104,"internal_node_id":"0.0-1.0","screen_height":616,"screen_width":1280,"participant_id":"S00"},{"rt":7011,"response":{"Participant_ID":"S00"},"screen":"participant_info","version":"1.0","date":"12/07/2022","time":"12:26:15","trial_type":"survey-text","trial_index":2,"time_elapsed":108127,"internal_node_id":"0.0-2.0","screen_height":616,"screen_width":1280,"browser":"chrome","browser_version":"103.0.0","mobile":false,"os":"Windows 10","vsync_rate":60.47,"participant_id":"S00"},{"rt":9038,"stimulus":"<p><b>The Illusion Game</b></p><p>In this reaction-time game, you will need to be <b>as fast as possible</b> and make correct responses by resisting different visual illusions.</p><p>We will show you examples of each illusion before each block.</p><p>Remember, your goal is to be as <b>fast</b> and <b>accurate</b> as possible. Good luck!</p>","response":0,"screen":"general_instructions","trial_type":"html-button-response","trial_index":3,"time_elapsed":117173,"internal_node_id":"0.0-3.0","screen_height":616,"screen_width":1280,"browser":"chrome","browser_version":"103.0.0","mobile":false,"os":"Windows 10","vsync_rate":60.47,"participant_id":"S00"},{"success":true,"timeout":false,"failed_images":[],"failed_audio":[],"failed_video":[],"trial_type":"preload","trial_index":4,"time_elapsed":117177,"internal_node_id":"0.0-4.0-0.0","screen_height":616,"screen_width":1280,"browser":"chrome","browser_version":"103.0.0","mobile":false,"os":"Windows 10","vsync_rate":60.47,"participant_id":"S00"},{"rt":28734,"stimulus":"<p><b>Part 1</b></p><p>In this part, two vertical grey rectangles will appear side by side.</p><p>Your task is to tell <b>which rectangle is of a lighter color</b>, as fast as you can, and without making errors.</p><p>Don't get distracted by the background color!</p><p>Press <b>the LEFT or the RIGHT arrow</b> to indicate which <b>side has the lighter rectangle.</b></p><div style='float: center'><img src='utils/stimuli_demo/White_Demo.png' height='300'></img><p><img src='utils/answer/answer_leftright_keyboard.PNG' height='150'></img></p><p class='small'>In this example, the correct answer is the <b>LEFT arrow</b>.</p></div><p>Are you ready? <b>Press ENTER to start</b></p>","response":"enter","trial_type":"html-keyboard-response","trial_index":5,"time_elapsed":145914,"internal_node_id":"0.0-4.0-1.0","screen_height":616,"screen_width":1280,"browser":"chrome","browser_version":"103.0.0","mobile":false,"os":"Windows 10","vsync_rate":60.47,"participant_id":"S00"},{"rt":null,"stimulus":"<div style=\"font-size:60px;\">+</div>","response":null,"screen":"fixation","trial_type":"html-keyboard-response","trial_index":6,"time_elapsed":147373,"internal_node_id":"0.0-4.0-2.0-0.0","screen_height":616,"screen_width":1280,"browser":"chrome","browser_version":"103.0.0","mobile":false,"os":"Windows 10","vsync_rate":60.47,"participant_id":"S00","trial_duration":940},{"rt":1298,"stimulus":"stimuli/White_str-30.0_diff-24.0.png","response":"arrowright","screen":"Trial","block":"White","correct_response":"arrowright","trial_type":"image-keyboard-response","trial_index":7,"time_elapsed":148677,"internal_node_id":"0.0-4.0-2.0-1.0","screen_height":616,"screen_width":1280,"browser":"chrome","browser_version":"103.0.0","mobile":false,"os":"Windows 10","vsync_rate":60.47,"participant_id":"S00","prestimulus_duration":1459,"correct":true,"type":"White","illusion_strength":-30,"illusion_difference":-24,"block_number":1,"trial_number":1},{"rt":null,"stimulus":"<div style=\"font-size:60px;\">+</div>","response":null,"screen":"fixation","trial_type":"html-keyboard-response","trial_index":8,"time_elapsed":149164,"internal_node_id":"0.0-4.0-2.0-0.1","screen_height":616,"screen_width":1280,"browser":"chrome","browser_version":"103.0.0","mobile":false,"os":"Windows 10","vsync_rate":60.47,"participant_id":"S00","trial_duration":472},{"rt":737,"stimulus":"stimuli/White_str-6.0_diff24.0.png","response":"arrowleft","screen":"Trial","block":"White","correct_response":"arrowleft","trial_type":"image-keyboard-response","trial_index":9,"time_elapsed":149903,"internal_node_id":"0.0-4.0-2.0-1.1","screen_height":616,"screen_width":1280,"browser":"chrome","browser_version":"103.0.0","mobile":false,"os":"Windows 10","vsync_rate":60.47,"participant_id":"S00","prestimulus_duration":487,"correct":true,"type":"White","illusion_strength":-6,"illusion_difference":24,"block_number":1,"trial_number":2},{"rt":null,"stimulus":"<div style=\"font-size:60px;\">+</div>","response":null,"screen":"fixation","trial_type":"html-keyboard-response","trial_index":10,"time_elapsed":150210,"internal_node_id":"0.0-4.0-2.0-0.2","screen_height":616,"screen_width":1280,"browser":"chrome","browser_version":"103.0.0","mobile":false,"os":"Windows 10","vsync_rate":60.47,"participant_id":"S00","trial_duration":297},{"rt":733,"stimulus":"stimuli/White_str30.0_diff24.0.png","response":"arrowleft","screen":"Trial","block":"White","correct_response":"arrowleft","trial_type":"image-keyboard-response","trial_index":11,"time_elapsed":150945,"internal_node_id":"0.0-4.0-2.0-1.2","screen_height":616,"screen_width":1280,"browser":"chrome","browser_version":"103.0.0","mobile":false,"os":"Windows 10","vsync_rate":60.47,"participant_id":"S00","prestimulus_duration":307,"correct":true,"type":"White","illusion_strength":30,"illusion_difference":24,"block_number":1,"trial_number":3},{"rt":null,"stimulus":"<div style=\"font-size:60px;\">+</div>","response":null,"screen":"fixation","trial_type":"html-keyboard-response","trial_index":12,"time_elapsed":151928,"internal_node_id":"0.0-4.0-2.0-0.3","screen_height":616,"screen_width":1280,"browser":"chrome","browser_version":"103.0.0","mobile":false,"os":"Windows 10","vsync_rate":60.47,"participant_id":"S00","trial_duration":970},{"rt":822,"stimulus":"stimuli/White_str-6.0_diff8.0.png","response":"arrowleft","screen":"Trial","block":"White","correct_response":"arrowleft","trial_type":"image-keyboard-response","trial_index":13,"time_elapsed":152751,"internal_node_id":"0.0-4.0-2.0-1.3","screen_height":616,"screen_width":1280,"browser":"chrome","browser_version":"103.0.0","mobile":false,"os":"Windows 10","vsync_rate":60.47,"participant_id":"S00","prestimulus_duration":983,"correct":true,"type":"White","illusion_strength":-6,"illusion_difference":8,"block_number":1,"trial_number":4},{"rt":null,"stimulus":"<div style=\"font-size:60px;\">+</div>","response":null,"screen":"fixation","trial_type":"html-keyboard-response","trial_index":14,"time_elapsed":153497,"internal_node_id":"0.0-4.0-2.0-0.4","screen_height":616,"screen_width":1280,"browser":"chrome","browser_version":"103.0.0","mobile":false,"os":"Windows 10","vsync_rate":60.47,"participant_id":"S00","trial_duration":733},{"rt":860,"stimulus":"stimuli/White_str30.0_diff-40.0.png","response":"arrowright","screen":"Trial","block":"White","correct_response":"arrowright","trial_type":"image-keyboard-response","trial_index":15,"time_elapsed":154359,"internal_node_id":"0.0-4.0-2.0-1.4","screen_height":616,"screen_width":1280,"browser":"chrome","browser_version":"103.0.0","mobile":false,"os":"Windows 10","vsync_rate":60.47,"participant_id":"S00","prestimulus_duration":746,"correct":true,"type":"White","illusion_strength":30,"illusion_difference":-40,"block_number":1,"trial_number":5},{"rt":null,"stimulus":"<div style=\"font-size:60px;\">+</div>","response":null,"screen":"fixation","trial_type":"html-keyboard-response","trial_index":16,"time_elapsed":155297,"internal_node_id":"0.0-4.0-2.0-0.5","screen_height":616,"screen_width":1280,"browser":"chrome","browser_version":"103.0.0","mobile":false,"os":"Windows 10","vsync_rate":60.47,"participant_id":"S00","trial_duration":922},{"rt":718,"stimulus":"stimuli/White_str30.0_diff8.0.png","response":"arrowleft","screen":"Trial","block":"White","correct_response":"arrowleft","trial_type":"image-keyboard-response","trial_index":17,"time_elapsed":156017,"internal_node_id":"0.0-4.0-2.0-1.5","screen_height":616,"screen_width":1280,"browser":"chrome","browser_version":"103.0.0","mobile":false,"os":"Windows 10","vsync_rate":60.47,"participant_id":"S00","prestimulus_duration":938,"correct":true,"type":"White","illusion_strength":30,"illusion_difference":8,"block_number":1,"trial_number":6},{"rt":null,"stimulus":"<div style=\"font-size:60px;\">+</div>","response":null,"screen":"fixation","trial_type":"html-keyboard-response","trial_index":18,"time_elapsed":156686,"internal_node_id":"0.0-4.0-2.0-0.6","screen_height":616,"screen_width":1280,"browser":"chrome","browser_version":"103.0.0","mobile":false,"os":"Windows 10","vsync_rate":60.47,"participant_id":"S00","trial_duration":665},{"rt":837,"stimulus":"stimuli/White_str6.0_diff-24.0.png","response":"arrowright","screen":"Trial","block":"White","correct_response":"arrowright","trial_type":"image-keyboard-response","trial_index":19,"time_elapsed":157524,"internal_node_id":"0.0-4.0-2.0-1.6","screen_height":616,"screen_width":1280,"browser":"chrome","browser_version":"103.0.0","mobile":false,"os":"Windows 10","vsync_rate":60.47,"participant_id":"S00","prestimulus_duration":669,"correct":true,"type":"White","illusion_strength":6,"illusion_difference":-24,"block_number":1,"trial_number":7},{"rt":null,"stimulus":"<div style=\"font-size:60px;\">+</div>","response":null,"screen":"fixation","trial_type":"html-keyboard-response","trial_index":20,"time_elapsed":158241,"internal_node_id":"0.0-4.0-2.0-0.7","screen_height":616,"screen_width":1280,"browser":"chrome","browser_version":"103.0.0","mobile":false,"os":"Windows 10","vsync_rate":60.47,"participant_id":"S00","trial_duration":703},{"rt":990,"stimulus":"stimuli/White_str-6.0_diff-40.0.png","response":"arrowright","screen":"Trial","block":"White","correct_response":"arrowright","trial_type":"image-keyboard-response","trial_index":21,"time_elapsed":159233,"internal_node_id":"0.0-4.0-2.0-1.7","screen_height":616,"screen_width":1280,"browser":"chrome","browser_version":"103.0.0","mobile":false,"os":"Windows 10","vsync_rate":60.47,"participant_id":"S00","prestimulus_duration":717,"correct":true,"type":"White","illusion_strength":-6,"illusion_difference":-40,"block_number":1,"trial_number":8},{"rt":null,"stimulus":"<div style=\"font-size:60px;\">+</div>","response":null,"screen":"fixation","trial_type":"html-keyboard-response","trial_index":22,"time_elapsed":160072,"internal_node_id":"0.0-4.0-2.0-0.8","screen_height":616,"screen_width":1280,"browser":"chrome","browser_version":"103.0.0","mobile":false,"os":"Windows 10","vsync_rate":60.47,"participant_id":"S00","trial_duration":826},{"rt":718,"stimulus":"stimuli/White_str18.0_diff-24.0.png","response":"arrowright","screen":"Trial","block":"White","correct_response":"arrowright","trial_type":"image-keyboard-response","trial_index":23,"time_elapsed":160791,"internal_node_id":"0.0-4.0-2.0-1.8","screen_height":616,"screen_width":1280,"browser":"chrome","browser_version":"103.0.0","mobile":false,"os":"Windows 10","vsync_rate":60.47,"participant_id":"S00","prestimulus_duration":839,"correct":true,"type":"White","illusion_strength":18,"illusion_difference":-24,"block_number":1,"trial_number":9},{"rt":null,"stimulus":"<div style=\"font-size:60px;\">+</div>","response":null,"screen":"fixation","trial_type":"html-keyboard-response","trial_index":24,"time_elapsed":161485,"internal_node_id":"0.0-4.0-2.0-0.9","screen_height":616,"screen_width":1280,"browser":"chrome","browser_version":"103.0.0","mobile":false,"os":"Windows 10","vsync_rate":60.47,"participant_id":"S00","trial_duration":678},{"rt":739,"stimulus":"stimuli/White_str-18.0_diff-40.0.png","response":"arrowright","screen":"Trial","block":"White","correct_response":"arrowright","trial_type":"image-keyboard-response","trial_index":25,"time_elapsed":162226,"internal_node_id":"0.0-4.0-2.0-1.9","screen_height":616,"screen_width":1280,"browser":"chrome","browser_version":"103.0.0","mobile":false,"os":"Windows 10","vsync_rate":60.47,"participant_id":"S00","prestimulus_duration":694,"correct":true,"type":"White","illusion_strength":-18,"illusion_difference":-40,"block_number":1,"trial_number":10},{"rt":null,"stimulus":"<div style=\"font-size:60px;\">+</div>","response":null,"screen":"fixation","trial_type":"html-keyboard-response","trial_index":26,"time_elapsed":162922,"internal_node_id":"0.0-4.0-2.0-0.10","screen_height":616,"screen_width":1280,"browser":"chrome","browser_version":"103.0.0","mobile":false,"os":"Windows 10","vsync_rate":60.47,"participant_id":"S00","trial_duration":680},{"rt":670,"stimulus":"stimuli/White_str30.0_diff-8.0.png","response":"arrowright","screen":"Trial","block":"White","correct_response":"arrowright","trial_type":"image-keyboard-response","trial_index":27,"time_elapsed":163594,"internal_node_id":"0.0-4.0-2.0-1.10","screen_height":616,"screen_width":1280,"browser":"chrome","browser_version":"103.0.0","mobile":false,"os":"Windows 10","vsync_rate":60.47,"participant_id":"S00","prestimulus_duration":696,"correct":true,"type":"White","illusion_strength":30,"illusion_difference":-8,"block_number":1,"trial_number":11},{"rt":null,"stimulus":"<div style=\"font-size:60px;\">+</div>","response":null,"screen":"fixation","trial_type":"html-keyboard-response","trial_index":28,"time_elapsed":164125,"internal_node_id":"0.0-4.0-2.0-0.11","screen_height":616,"screen_width":1280,"browser":"chrome","browser_version":"103.0.0","mobile":false,"os":"Windows 10","vsync_rate":60.47,"participant_id":"S00","trial_duration":518},{"rt":698,"stimulus":"stimuli/White_str6.0_diff24.0.png","response":"arrowleft","screen":"Trial","block":"White","correct_response":"arrowleft","trial_type":"image-keyboard-response","trial_index":29,"time_elapsed":164824,"internal_node_id":"0.0-4.0-2.0-1.11","screen_height":616,"screen_width":1280,"browser":"chrome","browser_version":"103.0.0","mobile":false,"os":"Windows 10","vsync_rate":60.47,"participant_id":"S00","prestimulus_duration":531,"correct":true,"type":"White","illusion_strength":6,"illusion_difference":24,"block_number":1,"trial_number":12},{"rt":null,"stimulus":"<div style=\"font-size:60px;\">+</div>","response":null,"screen":"fixation","trial_type":"html-keyboard-response","trial_index":30,"time_elapsed":165554,"internal_node_id":"0.0-4.0-2.0-0.12","screen_height":616,"screen_width":1280,"browser":"chrome","browser_version":"103.0.0","mobile":false,"os":"Windows 10","vsync_rate":60.47,"participant_id":"S00","trial_duration":726},{"rt":697,"stimulus":"stimuli/White_str18.0_diff24.0.png","response":"arrowleft","screen":"Trial","block":"White","correct_response":"arrowleft","trial_type":"image-keyboard-response","trial_index":31,"time_elapsed":166253,"internal_node_id":"0.0-4.0-2.0-1.12","screen_height":616,"screen_width":1280,"browser":"chrome","browser_version":"103.0.0","mobile":false,"os":"Windows 10","vsync_rate":60.47,"participant_id":"S00","prestimulus_duration":730,"correct":true,"type":"White","illusion_strength":18,"illusion_difference":24,"block_number":1,"trial_number":13},{"rt":null,"stimulus":"<div style=\"font-size:60px;\">+</div>","response":null,"screen":"fixation","trial_type":"html-keyboard-response","trial_index":32,"time_elapsed":167233,"internal_node_id":"0.0-4.0-2.0-0.13","screen_height":616,"screen_width":1280,"browser":"chrome","browser_version":"103.0.0","mobile":false,"os":"Windows 10","vsync_rate":60.47,"participant_id":"S00","trial_duration":967},{"rt":1016,"stimulus":"stimuli/White_str-30.0_diff-8.0.png","response":"arrowleft","screen":"Trial","block":"White","correct_response":"arrowright","trial_type":"image-keyboard-response","trial_index":33,"time_elapsed":168249,"internal_node_id":"0.0-4.0-2.0-1.13","screen_height":616,"screen_width":1280,"browser":"chrome","browser_version":"103.0.0","mobile":false,"os":"Windows 10","vsync_rate":60.47,"participant_id":"S00","prestimulus_duration":980,"correct":false,"type":"White","illusion_strength":-30,"illusion_difference":-8,"block_number":1,"trial_number":14},{"rt":null,"stimulus":"<div style=\"font-size:60px;\">+</div>","response":null,"screen":"fixation","trial_type":"html-keyboard-response","trial_index":34,"time_elapsed":169080,"internal_node_id":"0.0-4.0-2.0-0.14","screen_height":616,"screen_width":1280,"browser":"chrome","browser_version":"103.0.0","mobile":false,"os":"Windows 10","vsync_rate":60.47,"participant_id":"S00","trial_duration":826},{"rt":743,"stimulus":"stimuli/White_str6.0_diff-40.0.png","response":"arrowright","screen":"Trial","block":"White","correct_response":"arrowright","trial_type":"image-keyboard-response","trial_index":35,"time_elapsed":169824,"internal_node_id":"0.0-4.0-2.0-1.14","screen_height":616,"screen_width":1280,"browser":"chrome","browser_version":"103.0.0","mobile":false,"os":"Windows 10","vsync_rate":60.47,"participant_id":"S00","prestimulus_duration":831,"correct":true,"type":"White","illusion_strength":6,"illusion_difference":-40,"block_number":1,"trial_number":15},{"rt":null,"stimulus":"<div style=\"font-size:60px;\">+</div>","response":null,"screen":"fixation","trial_type":"html-keyboard-response","trial_index":36,"time_elapsed":170179,"internal_node_id":"0.0-4.0-2.0-0.15","screen_height":616,"screen_width":1280,"browser":"chrome","browser_version":"103.0.0","mobile":false,"os":"Windows 10","vsync_rate":60.47,"participant_id":"S00","trial_duration":349},{"rt":761,"stimulus":"stimuli/White_str-30.0_diff-40.0.png","response":"arrowright","screen":"Trial","block":"White","correct_response":"arrowright","trial_type":"image-keyboard-response","trial_index":37,"time_elapsed":170941,"internal_node_id":"0.0-4.0-2.0-1.15","screen_height":616,"screen_width":1280,"browser":"chrome","browser_version":"103.0.0","mobile":false,"os":"Windows 10","vsync_rate":60.47,"participant_id":"S00","prestimulus_duration":355,"correct":true,"type":"White","illusion_strength":-30,"illusion_difference":-40,"block_number":1,"trial_number":16},{"rt":null,"stimulus":"<div style=\"font-size:60px;\">+</div>","response":null,"screen":"fixation","trial_type":"html-keyboard-response","trial_index":38,"time_elapsed":171354,"internal_node_id":"0.0-4.0-2.0-0.16","screen_height":616,"screen_width":1280,"browser":"chrome","browser_version":"103.0.0","mobile":false,"os":"Windows 10","vsync_rate":60.47,"participant_id":"S00","trial_duration":404},{"rt":695,"stimulus":"stimuli/White_str-6.0_diff40.0.png","response":"arrowleft","screen":"Trial","block":"White","correct_response":"arrowleft","trial_type":"image-keyboard-response","trial_index":39,"time_elapsed":172050,"internal_node_id":"0.0-4.0-2.0-1.16","screen_height":616,"screen_width":1280,"browser":"chrome","browser_version":"103.0.0","mobile":false,"os":"Windows 10","vsync_rate":60.47,"participant_id":"S00","prestimulus_duration":413,"correct":true,"type":"White","illusion_strength":-6,"illusion_difference":40,"block_number":1,"trial_number":17},{"rt":null,"stimulus":"<div style=\"font-size:60px;\">+</div>","response":null,"screen":"fixation","trial_type":"html-keyboard-response","trial_index":40,"time_elapsed":172321,"internal_node_id":"0.0-4.0-2.0-0.17","screen_height":616,"screen_width":1280,"browser":"chrome","browser_version":"103.0.0","mobile":false,"os":"Windows 10","vsync_rate":60.47,"participant_id":"S00","trial_duration":264},{"rt":1411,"stimulus":"stimuli/White_str6.0_diff8.0.png","response":"arrowleft","screen":"Trial","block":"White","correct_response":"arrowleft","trial_type":"image-keyboard-response","trial_index":41,"time_elapsed":173734,"internal_node_id":"0.0-4.0-2.0-1.17","screen_height":616,"screen_width":1280,"browser":"chrome","browser_version":"103.0.0","mobile":false,"os":"Windows 10","vsync_rate":60.47,"participant_id":"S00","prestimulus_duration":271,"correct":true,"type":"White","illusion_strength":6,"illusion_difference":8,"block_number":1,"trial_number":18},{"rt":null,"stimulus":"<div style=\"font-size:60px;\">+</div>","response":null,"screen":"fixation","trial_type":"html-keyboard-response","trial_index":42,"time_elapsed":174513,"internal_node_id":"0.0-4.0-2.0-0.18","screen_height":616,"screen_width":1280,"browser":"chrome","browser_version":"103.0.0","mobile":false,"os":"Windows 10","vsync_rate":60.47,"participant_id":"S00","trial_duration":765},{"rt":874,"stimulus":"stimuli/White_str30.0_diff-24.0.png","response":"arrowright","screen":"Trial","block":"White","correct_response":"arrowright","trial_type":"image-keyboard-response","trial_index":43,"time_elapsed":175389,"internal_node_id":"0.0-4.0-2.0-1.18","screen_height":616,"screen_width":1280,"browser":"chrome","browser_version":"103.0.0","mobile":false,"os":"Windows 10","vsync_rate":60.47,"participant_id":"S00","prestimulus_duration":779,"correct":true,"type":"White","illusion_strength":30,"illusion_difference":-24,"block_number":1,"trial_number":19},{"rt":null,"stimulus":"<div style=\"font-size:60px;\">+</div>","response":null,"screen":"fixation","trial_type":"html-keyboard-response","trial_index":44,"time_elapsed":175688,"internal_node_id":"0.0-4.0-2.0-0.19","screen_height":616,"screen_width":1280,"browser":"chrome","browser_version":"103.0.0","mobile":false,"os":"Windows 10","vsync_rate":60.47,"participant_id":"S00","trial_duration":285},{"rt":772,"stimulus":"stimuli/White_str18.0_diff40.0.png","response":"arrowleft","screen":"Trial","block":"White","correct_response":"arrowleft","trial_type":"image-keyboard-response","trial_index":45,"time_elapsed":176462,"internal_node_id":"0.0-4.0-2.0-1.19","screen_height":616,"screen_width":1280,"browser":"chrome","browser_version":"103.0.0","mobile":false,"os":"Windows 10","vsync_rate":60.47,"participant_id":"S00","prestimulus_duration":299,"correct":true,"type":"White","illusion_strength":18,"illusion_difference":40,"block_number":1,"trial_number":20},{"rt":null,"stimulus":"<div style=\"font-size:60px;\">+</div>","response":null,"screen":"fixation","trial_type":"html-keyboard-response","trial_index":46,"time_elapsed":176884,"internal_node_id":"0.0-4.0-2.0-0.20","screen_height":616,"screen_width":1280,"browser":"chrome","browser_version":"103.0.0","mobile":false,"os":"Windows 10","vsync_rate":60.47,"participant_id":"S00","trial_duration":408},{"rt":704,"stimulus":"stimuli/White_str6.0_diff-8.0.png","response":"arrowright","screen":"Trial","block":"White","correct_response":"arrowright","trial_type":"image-keyboard-response","trial_index":47,"time_elapsed":177589,"internal_node_id":"0.0-4.0-2.0-1.20","screen_height":616,"screen_width":1280,"browser":"chrome","browser_version":"103.0.0","mobile":false,"os":"Windows 10","vsync_rate":60.47,"participant_id":"S00","prestimulus_duration":422,"correct":true,"type":"White","illusion_strength":6,"illusion_difference":-8,"block_number":1,"trial_number":21},{"rt":null,"stimulus":"<div style=\"font-size:60px;\">+</div>","response":null,"screen":"fixation","trial_type":"html-keyboard-response","trial_index":48,"time_elapsed":177988,"internal_node_id":"0.0-4.0-2.0-0.21","screen_height":616,"screen_width":1280,"browser":"chrome","browser_version":"103.0.0","mobile":false,"os":"Windows 10","vsync_rate":60.47,"participant_id":"S00","trial_duration":384},{"rt":903,"stimulus":"stimuli/White_str-18.0_diff-8.0.png","response":"arrowright","screen":"Trial","block":"White","correct_response":"arrowright","trial_type":"image-keyboard-response","trial_index":49,"time_elapsed":178892,"internal_node_id":"0.0-4.0-2.0-1.21","screen_height":616,"screen_width":1280,"browser":"chrome","browser_version":"103.0.0","mobile":false,"os":"Windows 10","vsync_rate":60.47,"participant_id":"S00","prestimulus_duration":399,"correct":true,"type":"White","illusion_strength":-18,"illusion_difference":-8,"block_number":1,"trial_number":22},{"rt":null,"stimulus":"<div style=\"font-size:60px;\">+</div>","response":null,"screen":"fixation","trial_type":"html-keyboard-response","trial_index":50,"time_elapsed":179196,"internal_node_id":"0.0-4.0-2.0-0.22","screen_height":616,"screen_width":1280,"browser":"chrome","browser_version":"103.0.0","mobile":false,"os":"Windows 10","vsync_rate":60.47,"participant_id":"S00","trial_duration":297},{"rt":754,"stimulus":"stimuli/White_str-6.0_diff-24.0.png","response":"arrowright","screen":"Trial","block":"White","correct_response":"arrowright","trial_type":"image-keyboard-response","trial_index":51,"time_elapsed":179952,"internal_node_id":"0.0-4.0-2.0-1.22","screen_height":616,"screen_width":1280,"browser":"chrome","browser_version":"103.0.0","mobile":false,"os":"Windows 10","vsync_rate":60.47,"participant_id":"S00","prestimulus_duration":304,"correct":true,"type":"White","illusion_strength":-6,"illusion_difference":-24,"block_number":1,"trial_number":23},{"rt":null,"stimulus":"<div style=\"font-size:60px;\">+</div>","response":null,"screen":"fixation","trial_type":"html-keyboard-response","trial_index":52,"time_elapsed":180349,"internal_node_id":"0.0-4.0-2.0-0.23","screen_height":616,"screen_width":1280,"browser":"chrome","browser_version":"103.0.0","mobile":false,"os":"Windows 10","vsync_rate":60.47,"participant_id":"S00","trial_duration":383},{"rt":666,"stimulus":"stimuli/White_str6.0_diff40.0.png","response":"arrowleft","screen":"Trial","block":"White","correct_response":"arrowleft","trial_type":"image-keyboard-response","trial_index":53,"time_elapsed":181016,"internal_node_id":"0.0-4.0-2.0-1.23","screen_height":616,"screen_width":1280,"browser":"chrome","browser_version":"103.0.0","mobile":false,"os":"Windows 10","vsync_rate":60.47,"participant_id":"S00","prestimulus_duration":397,"correct":true,"type":"White","illusion_strength":6,"illusion_difference":40,"block_number":1,"trial_number":24},{"rt":null,"stimulus":"<div style=\"font-size:60px;\">+</div>","response":null,"screen":"fixation","trial_type":"html-keyboard-response","trial_index":54,"time_elapsed":181858,"internal_node_id":"0.0-4.0-2.0-0.24","screen_height":616,"screen_width":1280,"browser":"chrome","browser_version":"103.0.0","mobile":false,"os":"Windows 10","vsync_rate":60.47,"participant_id":"S00","trial_duration":836},{"rt":803,"stimulus":"stimuli/White_str-30.0_diff24.0.png","response":"arrowright","screen":"Trial","block":"White","correct_response":"arrowleft","trial_type":"image-keyboard-response","trial_index":55,"time_elapsed":182662,"internal_node_id":"0.0-4.0-2.0-1.24","screen_height":616,"screen_width":1280,"browser":"chrome","browser_version":"103.0.0","mobile":false,"os":"Windows 10","vsync_rate":60.47,"participant_id":"S00","prestimulus_duration":842,"correct":false,"type":"White","illusion_strength":-30,"illusion_difference":24,"block_number":1,"trial_number":25},{"rt":null,"stimulus":"<div style=\"font-size:60px;\">+</div>","response":null,"screen":"fixation","trial_type":"html-keyboard-response","trial_index":56,"time_elapsed":183360,"internal_node_id":"0.0-4.0-2.0-0.25","screen_height":616,"screen_width":1280,"browser":"chrome","browser_version":"103.0.0","mobile":false,"os":"Windows 10","vsync_rate":60.47,"participant_id":"S00","trial_duration":696},{"rt":760,"stimulus":"stimuli/White_str-30.0_diff8.0.png","response":"arrowright","screen":"Trial","block":"White","correct_response":"arrowleft","trial_type":"image-keyboard-response","trial_index":57,"time_elapsed":184121,"internal_node_id":"0.0-4.0-2.0-1.25","screen_height":616,"screen_width":1280,"browser":"chrome","browser_version":"103.0.0","mobile":false,"os":"Windows 10","vsync_rate":60.47,"participant_id":"S00","prestimulus_duration":698,"correct":false,"type":"White","illusion_strength":-30,"illusion_difference":8,"block_number":1,"trial_number":26},{"rt":null,"stimulus":"<div style=\"font-size:60px;\">+</div>","response":null,"screen":"fixation","trial_type":"html-keyboard-response","trial_index":58,"time_elapsed":184429,"internal_node_id":"0.0-4.0-2.0-0.26","screen_height":616,"screen_width":1280,"browser":"chrome","browser_version":"103.0.0","mobile":false,"os":"Windows 10","vsync_rate":60.47,"participant_id":"S00","trial_duration":290},{"rt":772,"stimulus":"stimuli/White_str18.0_diff-40.0.png","response":"arrowright","screen":"Trial","block":"White","correct_response":"arrowright","trial_type":"image-keyboard-response","trial_index":59,"time_elapsed":185202,"internal_node_id":"0.0-4.0-2.0-1.26","screen_height":616,"screen_width":1280,"browser":"chrome","browser_version":"103.0.0","mobile":false,"os":"Windows 10","vsync_rate":60.47,"participant_id":"S00","prestimulus_duration":308,"correct":true,"type":"White","illusion_strength":18,"illusion_difference":-40,"block_number":1,"trial_number":27},{"rt":null,"stimulus":"<div style=\"font-size:60px;\">+</div>","response":null,"screen":"fixation","trial_type":"html-keyboard-response","trial_index":60,"time_elapsed":185571,"internal_node_id":"0.0-4.0-2.0-0.27","screen_height":616,"screen_width":1280,"browser":"chrome","browser_version":"103.0.0","mobile":false,"os":"Windows 10","vsync_rate":60.47,"participant_id":"S00","trial_duration":352},{"rt":646,"stimulus":"stimuli/White_str30.0_diff40.0.png","response":"arrowleft","screen":"Trial","block":"White","correct_response":"arrowleft","trial_type":"image-keyboard-response","trial_index":61,"time_elapsed":186218,"internal_node_id":"0.0-4.0-2.0-1.27","screen_height":616,"screen_width":1280,"browser":"chrome","browser_version":"103.0.0","mobile":false,"os":"Windows 10","vsync_rate":60.47,"participant_id":"S00","prestimulus_duration":369,"correct":true,"type":"White","illusion_strength":30,"illusion_difference":40,"block_number":1,"trial_number":28},{"rt":null,"stimulus":"<div style=\"font-size:60px;\">+</div>","response":null,"screen":"fixation","trial_type":"html-keyboard-response","trial_index":62,"time_elapsed":186868,"internal_node_id":"0.0-4.0-2.0-0.28","screen_height":616,"screen_width":1280,"browser":"chrome","browser_version":"103.0.0","mobile":false,"os":"Windows 10","vsync_rate":60.47,"participant_id":"S00","trial_duration":639},{"rt":712,"stimulus":"stimuli/White_str-18.0_diff-24.0.png","response":"arrowright","screen":"Trial","block":"White","correct_response":"arrowright","trial_type":"image-keyboard-response","trial_index":63,"time_elapsed":187582,"internal_node_id":"0.0-4.0-2.0-1.28","screen_height":616,"screen_width":1280,"browser":"chrome","browser_version":"103.0.0","mobile":false,"os":"Windows 10","vsync_rate":60.47,"participant_id":"S00","prestimulus_duration":650,"correct":true,"type":"White","illusion_strength":-18,"illusion_difference":-24,"block_number":1,"trial_number":29},{"rt":null,"stimulus":"<div style=\"font-size:60px;\">+</div>","response":null,"screen":"fixation","trial_type":"html-keyboard-response","trial_index":64,"time_elapsed":188534,"internal_node_id":"0.0-4.0-2.0-0.29","screen_height":616,"screen_width":1280,"browser":"chrome","browser_version":"103.0.0","mobile":false,"os":"Windows 10","vsync_rate":60.47,"participant_id":"S00","trial_duration":935},{"rt":760,"stimulus":"stimuli/White_str-18.0_diff24.0.png","response":"arrowleft","screen":"Trial","block":"White","correct_response":"arrowleft","trial_type":"image-keyboard-response","trial_index":65,"time_elapsed":189295,"internal_node_id":"0.0-4.0-2.0-1.29","screen_height":616,"screen_width":1280,"browser":"chrome","browser_version":"103.0.0","mobile":false,"os":"Windows 10","vsync_rate":60.47,"participant_id":"S00","prestimulus_duration":952,"correct":true,"type":"White","illusion_strength":-18,"illusion_difference":24,"block_number":1,"trial_number":30},{"rt":null,"stimulus":"<div style=\"font-size:60px;\">+</div>","response":null,"screen":"fixation","trial_type":"html-keyboard-response","trial_index":66,"time_elapsed":189777,"internal_node_id":"0.0-4.0-2.0-0.30","screen_height":616,"screen_width":1280,"browser":"chrome","browser_version":"103.0.0","mobile":false,"os":"Windows 10","vsync_rate":60.47,"participant_id":"S00","trial_duration":470},{"rt":816,"stimulus":"stimuli/White_str-6.0_diff-8.0.png","response":"arrowright","screen":"Trial","block":"White","correct_response":"arrowright","trial_type":"image-keyboard-response","trial_index":67,"time_elapsed":190594,"internal_node_id":"0.0-4.0-2.0-1.30","screen_height":616,"screen_width":1280,"browser":"chrome","browser_version":"103.0.0","mobile":false,"os":"Windows 10","vsync_rate":60.47,"participant_id":"S00","prestimulus_duration":482,"correct":true,"type":"White","illusion_strength":-6,"illusion_difference":-8,"block_number":1,"trial_number":31},{"rt":null,"stimulus":"<div style=\"font-size:60px;\">+</div>","response":null,"screen":"fixation","trial_type":"html-keyboard-response","trial_index":68,"time_elapsed":191113,"internal_node_id":"0.0-4.0-2.0-0.31","screen_height":616,"screen_width":1280,"browser":"chrome","browser_version":"103.0.0","mobile":false,"os":"Windows 10","vsync_rate":60.47,"participant_id":"S00","trial_duration":515},{"rt":628,"stimulus":"stimuli/White_str-18.0_diff8.0.png","response":"arrowleft","screen":"Trial","block":"White","correct_response":"arrowleft","trial_type":"image-keyboard-response","trial_index":69,"time_elapsed":191742,"internal_node_id":"0.0-4.0-2.0-1.31","screen_height":616,"screen_width":1280,"browser":"chrome","browser_version":"103.0.0","mobile":false,"os":"Windows 10","vsync_rate":60.47,"participant_id":"S00","prestimulus_duration":519,"correct":true,"type":"White","illusion_strength":-18,"illusion_difference":8,"block_number":1,"trial_number":32},{"rt":null,"stimulus":"<div style=\"font-size:60px;\">+</div>","response":null,"screen":"fixation","trial_type":"html-keyboard-response","trial_index":70,"time_elapsed":192497,"internal_node_id":"0.0-4.0-2.0-0.32","screen_height":616,"screen_width":1280,"browser":"chrome","browser_version":"103.0.0","mobile":false,"os":"Windows 10","vsync_rate":60.47,"participant_id":"S00","trial_duration":740},{"rt":745,"stimulus":"stimuli/White_str18.0_diff-8.0.png","response":"arrowright","screen":"Trial","block":"White","correct_response":"arrowright","trial_type":"image-keyboard-response","trial_index":71,"time_elapsed":193244,"internal_node_id":"0.0-4.0-2.0-1.32","screen_height":616,"screen_width":1280,"browser":"chrome","browser_version":"103.0.0","mobile":false,"os":"Windows 10","vsync_rate":60.47,"participant_id":"S00","prestimulus_duration":755,"correct":true,"type":"White","illusion_strength":18,"illusion_difference":-8,"block_number":1,"trial_number":33},{"rt":null,"stimulus":"<div style=\"font-size:60px;\">+</div>","response":null,"screen":"fixation","trial_type":"html-keyboard-response","trial_index":72,"time_elapsed":193543,"internal_node_id":"0.0-4.0-2.0-0.33","screen_height":616,"screen_width":1280,"browser":"chrome","browser_version":"103.0.0","mobile":false,"os":"Windows 10","vsync_rate":60.47,"participant_id":"S00","trial_duration":295},{"rt":778,"stimulus":"stimuli/White_str18.0_diff8.0.png","response":"arrowleft","screen":"Trial","block":"White","correct_response":"arrowleft","trial_type":"image-keyboard-response","trial_index":73,"time_elapsed":194323,"internal_node_id":"0.0-4.0-2.0-1.33","screen_height":616,"screen_width":1280,"browser":"chrome","browser_version":"103.0.0","mobile":false,"os":"Windows 10","vsync_rate":60.47,"participant_id":"S00","prestimulus_duration":299,"correct":true,"type":"White","illusion_strength":18,"illusion_difference":8,"block_number":1,"trial_number":34},{"rt":null,"stimulus":"<div style=\"font-size:60px;\">+</div>","response":null,"screen":"fixation","trial_type":"html-keyboard-response","trial_index":74,"time_elapsed":195216,"internal_node_id":"0.0-4.0-2.0-0.34","screen_height":616,"screen_width":1280,"browser":"chrome","browser_version":"103.0.0","mobile":false,"os":"Windows 10","vsync_rate":60.47,"participant_id":"S00","trial_duration":889},{"rt":653,"stimulus":"stimuli/White_str-18.0_diff40.0.png","response":"arrowleft","screen":"Trial","block":"White","correct_response":"arrowleft","trial_type":"image-keyboard-response","trial_index":75,"time_elapsed":195870,"internal_node_id":"0.0-4.0-2.0-1.34","screen_height":616,"screen_width":1280,"browser":"chrome","browser_version":"103.0.0","mobile":false,"os":"Windows 10","vsync_rate":60.47,"participant_id":"S00","prestimulus_duration":893,"correct":true,"type":"White","illusion_strength":-18,"illusion_difference":40,"block_number":1,"trial_number":35},{"rt":null,"stimulus":"<div style=\"font-size:60px;\">+</div>","response":null,"screen":"fixation","trial_type":"html-keyboard-response","trial_index":76,"time_elapsed":196446,"internal_node_id":"0.0-4.0-2.0-0.35","screen_height":616,"screen_width":1280,"browser":"chrome","browser_version":"103.0.0","mobile":false,"os":"Windows 10","vsync_rate":60.47,"participant_id":"S00","trial_duration":559},{"rt":675,"stimulus":"stimuli/White_str-30.0_diff40.0.png","response":"arrowleft","screen":"Trial","block":"White","correct_response":"arrowleft","trial_type":"image-keyboard-response","trial_index":77,"time_elapsed":197123,"internal_node_id":"0.0-4.0-2.0-1.35","screen_height":616,"screen_width":1280,"browser":"chrome","browser_version":"103.0.0","mobile":false,"os":"Windows 10","vsync_rate":60.47,"participant_id":"S00","prestimulus_duration":576,"correct":true,"type":"White","illusion_strength":-30,"illusion_difference":40,"block_number":1,"trial_number":36},{"rt":5075,"stimulus":"<p>Your score for this illusion is <p style=\"color: black; font-size: 48px; font-weight: bold;\">4141</p><hr><hr><p>Can you do better in the next illusion?</p>","response":0,"screen":"block_results","trial_type":"html-button-response","trial_index":78,"time_elapsed":202205,"internal_node_id":"0.0-4.0-3.0","screen_height":616,"screen_width":1280,"browser":"chrome","browser_version":"103.0.0","mobile":false,"os":"Windows 10","vsync_rate":60.47,"participant_id":"S00"},{"success":true,"timeout":false,"failed_images":[],"failed_audio":[],"failed_video":[],"trial_type":"preload","trial_index":79,"time_elapsed":202209,"internal_node_id":"0.0-5.0-0.0","screen_height":616,"screen_width":1280,"browser":"chrome","browser_version":"103.0.0","mobile":false,"os":"Windows 10","vsync_rate":60.47,"participant_id":"S00"},{"rt":7940,"stimulus":"<p><b>Part 2</b></p><p>In this part, two small grey rectangles will appear one above the other.</p><p>Your task is to select which rectangle is <b>lighter</b> as fast as you can, without making errors.</p><p>Don't get distracted by the surrounding background!</p><p>Press <b>the UP or the DOWN arrow</b> to indicate where is the <b>lighter rectangle.</b></p><div style='float: center'><img src='utils/stimuli_demo/Contrast_Demo.png' height='300'></img><p><img src='utils/answer/answer_updown_keyboard.PNG' height='150'></img></p><p class='small'>In this example, the correct answer is the <b>UP arrow</b>.</p></div><p>Are you ready? <b>Press ENTER to start</b></p>","response":"enter","trial_type":"html-keyboard-response","trial_index":80,"time_elapsed":210151,"internal_node_id":"0.0-5.0-1.0","screen_height":616,"screen_width":1280,"browser":"chrome","browser_version":"103.0.0","mobile":false,"os":"Windows 10","vsync_rate":60.47,"participant_id":"S00"},{"rt":null,"stimulus":"<div style=\"font-size:60px;\">+</div>","response":null,"screen":"fixation","trial_type":"html-keyboard-response","trial_index":81,"time_elapsed":211512,"internal_node_id":"0.0-5.0-2.0-0.0","screen_height":616,"screen_width":1280,"browser":"chrome","browser_version":"103.0.0","mobile":false,"os":"Windows 10","vsync_rate":60.47,"participant_id":"S00","trial_duration":836},{"rt":785,"stimulus":"stimuli/Contrast_str30.0_diff-8.0.png","response":"arrowdown","screen":"Trial","block":"Contrast","correct_response":"arrowdown","trial_type":"image-keyboard-response","trial_index":82,"time_elapsed":212298,"internal_node_id":"0.0-5.0-2.0-1.0","screen_height":616,"screen_width":1280,"browser":"chrome","browser_version":"103.0.0","mobile":false,"os":"Windows 10","vsync_rate":60.47,"participant_id":"S00","prestimulus_duration":1361,"correct":true,"type":"Contrast","illusion_strength":30,"illusion_difference":-8,"block_number":2,"trial_number":1},{"rt":null,"stimulus":"<div style=\"font-size:60px;\">+</div>","response":null,"screen":"fixation","trial_type":"html-keyboard-response","trial_index":83,"time_elapsed":212558,"internal_node_id":"0.0-5.0-2.0-0.1","screen_height":616,"screen_width":1280,"browser":"chrome","browser_version":"103.0.0","mobile":false,"os":"Windows 10","vsync_rate":60.47,"participant_id":"S00","trial_duration":252},{"rt":704,"stimulus":"stimuli/Contrast_str30.0_diff40.0.png","response":"arrowup","screen":"Trial","block":"Contrast","correct_response":"arrowup","trial_type":"image-keyboard-response","trial_index":84,"time_elapsed":213263,"internal_node_id":"0.0-5.0-2.0-1.1","screen_height":616,"screen_width":1280,"browser":"chrome","browser_version":"103.0.0","mobile":false,"os":"Windows 10","vsync_rate":60.47,"participant_id":"S00","prestimulus_duration":260,"correct":true,"type":"Contrast","illusion_strength":30,"illusion_difference":40,"block_number":2,"trial_number":2},{"rt":null,"stimulus":"<div style=\"font-size:60px;\">+</div>","response":null,"screen":"fixation","trial_type":"html-keyboard-response","trial_index":85,"time_elapsed":214035,"internal_node_id":"0.0-5.0-2.0-0.2","screen_height":616,"screen_width":1280,"browser":"chrome","browser_version":"103.0.0","mobile":false,"os":"Windows 10","vsync_rate":60.47,"participant_id":"S00","trial_duration":755},{"rt":799,"stimulus":"stimuli/Contrast_str-10.0_diff-24.0.png","response":"arrowdown","screen":"Trial","block":"Contrast","correct_response":"arrowdown","trial_type":"image-keyboard-response","trial_index":86,"time_elapsed":214835,"internal_node_id":"0.0-5.0-2.0-1.2","screen_height":616,"screen_width":1280,"browser":"chrome","browser_version":"103.0.0","mobile":false,"os":"Windows 10","vsync_rate":60.47,"participant_id":"S00","prestimulus_duration":772,"correct":true,"type":"Contrast","illusion_strength":-10,"illusion_difference":-24,"block_number":2,"trial_number":3},{"rt":null,"stimulus":"<div style=\"font-size:60px;\">+</div>","response":null,"screen":"fixation","trial_type":"html-keyboard-response","trial_index":87,"time_elapsed":215582,"internal_node_id":"0.0-5.0-2.0-0.3","screen_height":616,"screen_width":1280,"browser":"chrome","browser_version":"103.0.0","mobile":false,"os":"Windows 10","vsync_rate":60.47,"participant_id":"S00","trial_duration":733},{"rt":690,"stimulus":"stimuli/Contrast_str10.0_diff-8.0.png","response":"arrowdown","screen":"Trial","block":"Contrast","correct_response":"arrowdown","trial_type":"image-keyboard-response","trial_index":88,"time_elapsed":216274,"internal_node_id":"0.0-5.0-2.0-1.3","screen_height":616,"screen_width":1280,"browser":"chrome","browser_version":"103.0.0","mobile":false,"os":"Windows 10","vsync_rate":60.47,"participant_id":"S00","prestimulus_duration":747,"correct":true,"type":"Contrast","illusion_strength":10,"illusion_difference":-8,"block_number":2,"trial_number":4},{"rt":null,"stimulus":"<div style=\"font-size:60px;\">+</div>","response":null,"screen":"fixation","trial_type":"html-keyboard-response","trial_index":89,"time_elapsed":216908,"internal_node_id":"0.0-5.0-2.0-0.4","screen_height":616,"screen_width":1280,"browser":"chrome","browser_version":"103.0.0","mobile":false,"os":"Windows 10","vsync_rate":60.47,"participant_id":"S00","trial_duration":628},{"rt":671,"stimulus":"stimuli/Contrast_str-30.0_diff-8.0.png","response":"arrowdown","screen":"Trial","block":"Contrast","correct_response":"arrowdown","trial_type":"image-keyboard-response","trial_index":90,"time_elapsed":217580,"internal_node_id":"0.0-5.0-2.0-1.4","screen_height":616,"screen_width":1280,"browser":"chrome","browser_version":"103.0.0","mobile":false,"os":"Windows 10","vsync_rate":60.47,"participant_id":"S00","prestimulus_duration":634,"correct":true,"type":"Contrast","illusion_strength":-30,"illusion_difference":-8,"block_number":2,"trial_number":5},{"rt":null,"stimulus":"<div style=\"font-size:60px;\">+</div>","response":null,"screen":"fixation","trial_type":"html-keyboard-response","trial_index":91,"time_elapsed":218092,"internal_node_id":"0.0-5.0-2.0-0.5","screen_height":616,"screen_width":1280,"browser":"chrome","browser_version":"103.0.0","mobile":false,"os":"Windows 10","vsync_rate":60.47,"participant_id":"S00","trial_duration":505},{"rt":739,"stimulus":"stimuli/Contrast_str-50.0_diff8.0.png","response":"arrowdown","screen":"Trial","block":"Contrast","correct_response":"arrowup","trial_type":"image-keyboard-response","trial_index":92,"time_elapsed":218833,"internal_node_id":"0.0-5.0-2.0-1.5","screen_height":616,"screen_width":1280,"browser":"chrome","browser_version":"103.0.0","mobile":false,"os":"Windows 10","vsync_rate":60.47,"participant_id":"S00","prestimulus_duration":512,"correct":false,"type":"Contrast","illusion_strength":-50,"illusion_difference":8,"block_number":2,"trial_number":6},{"rt":null,"stimulus":"<div style=\"font-size:60px;\">+</div>","response":null,"screen":"fixation","trial_type":"html-keyboard-response","trial_index":93,"time_elapsed":219149,"internal_node_id":"0.0-5.0-2.0-0.6","screen_height":616,"screen_width":1280,"browser":"chrome","browser_version":"103.0.0","mobile":false,"os":"Windows 10","vsync_rate":60.47,"participant_id":"S00","trial_duration":302},{"rt":687,"stimulus":"stimuli/Contrast_str-10.0_diff40.0.png","response":"arrowup","screen":"Trial","block":"Contrast","correct_response":"arrowup","trial_type":"image-keyboard-response","trial_index":94,"time_elapsed":219838,"internal_node_id":"0.0-5.0-2.0-1.6","screen_height":616,"screen_width":1280,"browser":"chrome","browser_version":"103.0.0","mobile":false,"os":"Windows 10","vsync_rate":60.47,"participant_id":"S00","prestimulus_duration":316,"correct":true,"type":"Contrast","illusion_strength":-10,"illusion_difference":40,"block_number":2,"trial_number":7},{"rt":null,"stimulus":"<div style=\"font-size:60px;\">+</div>","response":null,"screen":"fixation","trial_type":"html-keyboard-response","trial_index":95,"time_elapsed":220308,"internal_node_id":"0.0-5.0-2.0-0.7","screen_height":616,"screen_width":1280,"browser":"chrome","browser_version":"103.0.0","mobile":false,"os":"Windows 10","vsync_rate":60.47,"participant_id":"S00","trial_duration":463},{"rt":690,"stimulus":"stimuli/Contrast_str-30.0_diff-40.0.png","response":"arrowdown","screen":"Trial","block":"Contrast","correct_response":"arrowdown","trial_type":"image-keyboard-response","trial_index":96,"time_elapsed":220999,"internal_node_id":"0.0-5.0-2.0-1.7","screen_height":616,"screen_width":1280,"browser":"chrome","browser_version":"103.0.0","mobile":false,"os":"Windows 10","vsync_rate":60.47,"participant_id":"S00","prestimulus_duration":470,"correct":true,"type":"Contrast","illusion_strength":-30,"illusion_difference":-40,"block_number":2,"trial_number":8},{"rt":null,"stimulus":"<div style=\"font-size:60px;\">+</div>","response":null,"screen":"fixation","trial_type":"html-keyboard-response","trial_index":97,"time_elapsed":221976,"internal_node_id":"0.0-5.0-2.0-0.8","screen_height":616,"screen_width":1280,"browser":"chrome","browser_version":"103.0.0","mobile":false,"os":"Windows 10","vsync_rate":60.47,"participant_id":"S00","trial_duration":969},{"rt":715,"stimulus":"stimuli/Contrast_str50.0_diff40.0.png","response":"arrowup","screen":"Trial","block":"Contrast","correct_response":"arrowup","trial_type":"image-keyboard-response","trial_index":98,"time_elapsed":222693,"internal_node_id":"0.0-5.0-2.0-1.8","screen_height":616,"screen_width":1280,"browser":"chrome","browser_version":"103.0.0","mobile":false,"os":"Windows 10","vsync_rate":60.47,"participant_id":"S00","prestimulus_duration":977,"correct":true,"type":"Contrast","illusion_strength":50,"illusion_difference":40,"block_number":2,"trial_number":9},{"rt":null,"stimulus":"<div style=\"font-size:60px;\">+</div>","response":null,"screen":"fixation","trial_type":"html-keyboard-response","trial_index":99,"time_elapsed":223058,"internal_node_id":"0.0-5.0-2.0-0.9","screen_height":616,"screen_width":1280,"browser":"chrome","browser_version":"103.0.0","mobile":false,"os":"Windows 10","vsync_rate":60.47,"participant_id":"S00","trial_duration":353},{"rt":802,"stimulus":"stimuli/Contrast_str50.0_diff-40.0.png","response":"arrowdown","screen":"Trial","block":"Contrast","correct_response":"arrowdown","trial_type":"image-keyboard-response","trial_index":100,"time_elapsed":223861,"internal_node_id":"0.0-5.0-2.0-1.9","screen_height":616,"screen_width":1280,"browser":"chrome","browser_version":"103.0.0","mobile":false,"os":"Windows 10","vsync_rate":60.47,"participant_id":"S00","prestimulus_duration":365,"correct":true,"type":"Contrast","illusion_strength":50,"illusion_difference":-40,"block_number":2,"trial_number":10},{"rt":null,"stimulus":"<div style=\"font-size:60px;\">+</div>","response":null,"screen":"fixation","trial_type":"html-keyboard-response","trial_index":101,"time_elapsed":224566,"internal_node_id":"0.0-5.0-2.0-0.10","screen_height":616,"screen_width":1280,"browser":"chrome","browser_version":"103.0.0","mobile":false,"os":"Windows 10","vsync_rate":60.47,"participant_id":"S00","trial_duration":700},{"rt":626,"stimulus":"stimuli/Contrast_str10.0_diff8.0.png","response":"arrowup","screen":"Trial","block":"Contrast","correct_response":"arrowup","trial_type":"image-keyboard-response","trial_index":102,"time_elapsed":225193,"internal_node_id":"0.0-5.0-2.0-1.10","screen_height":616,"screen_width":1280,"browser":"chrome","browser_version":"103.0.0","mobile":false,"os":"Windows 10","vsync_rate":60.47,"participant_id":"S00","prestimulus_duration":705,"correct":true,"type":"Contrast","illusion_strength":10,"illusion_difference":8,"block_number":2,"trial_number":11},{"rt":null,"stimulus":"<div style=\"font-size:60px;\">+</div>","response":null,"screen":"fixation","trial_type":"html-keyboard-response","trial_index":103,"time_elapsed":225677,"internal_node_id":"0.0-5.0-2.0-0.11","screen_height":616,"screen_width":1280,"browser":"chrome","browser_version":"103.0.0","mobile":false,"os":"Windows 10","vsync_rate":60.47,"participant_id":"S00","trial_duration":477},{"rt":833,"stimulus":"stimuli/Contrast_str-10.0_diff-8.0.png","response":"arrowdown","screen":"Trial","block":"Contrast","correct_response":"arrowdown","trial_type":"image-keyboard-response","trial_index":104,"time_elapsed":226511,"internal_node_id":"0.0-5.0-2.0-1.11","screen_height":616,"screen_width":1280,"browser":"chrome","browser_version":"103.0.0","mobile":false,"os":"Windows 10","vsync_rate":60.47,"participant_id":"S00","prestimulus_duration":484,"correct":true,"type":"Contrast","illusion_strength":-10,"illusion_difference":-8,"block_number":2,"trial_number":12},{"rt":null,"stimulus":"<div style=\"font-size:60px;\">+</div>","response":null,"screen":"fixation","trial_type":"html-keyboard-response","trial_index":105,"time_elapsed":227457,"internal_node_id":"0.0-5.0-2.0-0.12","screen_height":616,"screen_width":1280,"browser":"chrome","browser_version":"103.0.0","mobile":false,"os":"Windows 10","vsync_rate":60.47,"participant_id":"S00","trial_duration":934},{"rt":892,"stimulus":"stimuli/Contrast_str50.0_diff-24.0.png","response":"arrowdown","screen":"Trial","block":"Contrast","correct_response":"arrowdown","trial_type":"image-keyboard-response","trial_index":106,"time_elapsed":228351,"internal_node_id":"0.0-5.0-2.0-1.12","screen_height":616,"screen_width":1280,"browser":"chrome","browser_version":"103.0.0","mobile":false,"os":"Windows 10","vsync_rate":60.47,"participant_id":"S00","prestimulus_duration":946,"correct":true,"type":"Contrast","illusion_strength":50,"illusion_difference":-24,"block_number":2,"trial_number":13},{"rt":null,"stimulus":"<div style=\"font-size:60px;\">+</div>","response":null,"screen":"fixation","trial_type":"html-keyboard-response","trial_index":107,"time_elapsed":228907,"internal_node_id":"0.0-5.0-2.0-0.13","screen_height":616,"screen_width":1280,"browser":"chrome","browser_version":"103.0.0","mobile":false,"os":"Windows 10","vsync_rate":60.47,"participant_id":"S00","trial_duration":542},{"rt":688,"stimulus":"stimuli/Contrast_str-10.0_diff24.0.png","response":"arrowup","screen":"Trial","block":"Contrast","correct_response":"arrowup","trial_type":"image-keyboard-response","trial_index":108,"time_elapsed":229596,"internal_node_id":"0.0-5.0-2.0-1.13","screen_height":616,"screen_width":1280,"browser":"chrome","browser_version":"103.0.0","mobile":false,"os":"Windows 10","vsync_rate":60.47,"participant_id":"S00","prestimulus_duration":556,"correct":true,"type":"Contrast","illusion_strength":-10,"illusion_difference":24,"block_number":2,"trial_number":14},{"rt":null,"stimulus":"<div style=\"font-size:60px;\">+</div>","response":null,"screen":"fixation","trial_type":"html-keyboard-response","trial_index":109,"time_elapsed":230581,"internal_node_id":"0.0-5.0-2.0-0.14","screen_height":616,"screen_width":1280,"browser":"chrome","browser_version":"103.0.0","mobile":false,"os":"Windows 10","vsync_rate":60.47,"participant_id":"S00","trial_duration":976},{"rt":743,"stimulus":"stimuli/Contrast_str-30.0_diff8.0.png","response":"arrowdown","screen":"Trial","block":"Contrast","correct_response":"arrowup","trial_type":"image-keyboard-response","trial_index":110,"time_elapsed":231325,"internal_node_id":"0.0-5.0-2.0-1.14","screen_height":616,"screen_width":1280,"browser":"chrome","browser_version":"103.0.0","mobile":false,"os":"Windows 10","vsync_rate":60.47,"participant_id":"S00","prestimulus_duration":985,"correct":false,"type":"Contrast","illusion_strength":-30,"illusion_difference":8,"block_number":2,"trial_number":15},{"rt":null,"stimulus":"<div style=\"font-size:60px;\">+</div>","response":null,"screen":"fixation","trial_type":"html-keyboard-response","trial_index":111,"time_elapsed":232253,"internal_node_id":"0.0-5.0-2.0-0.15","screen_height":616,"screen_width":1280,"browser":"chrome","browser_version":"103.0.0","mobile":false,"os":"Windows 10","vsync_rate":60.47,"participant_id":"S00","trial_duration":918},{"rt":688,"stimulus":"stimuli/Contrast_str-50.0_diff-40.0.png","response":"arrowdown","screen":"Trial","block":"Contrast","correct_response":"arrowdown","trial_type":"image-keyboard-response","trial_index":112,"time_elapsed":232942,"internal_node_id":"0.0-5.0-2.0-1.15","screen_height":616,"screen_width":1280,"browser":"chrome","browser_version":"103.0.0","mobile":false,"os":"Windows 10","vsync_rate":60.47,"participant_id":"S00","prestimulus_duration":928,"correct":true,"type":"Contrast","illusion_strength":-50,"illusion_difference":-40,"block_number":2,"trial_number":16},{"rt":null,"stimulus":"<div style=\"font-size:60px;\">+</div>","response":null,"screen":"fixation","trial_type":"html-keyboard-response","trial_index":113,"time_elapsed":233203,"internal_node_id":"0.0-5.0-2.0-0.16","screen_height":616,"screen_width":1280,"browser":"chrome","browser_version":"103.0.0","mobile":false,"os":"Windows 10","vsync_rate":60.47,"participant_id":"S00","trial_duration":258},{"rt":803,"stimulus":"stimuli/Contrast_str-30.0_diff-24.0.png","response":"arrowdown","screen":"Trial","block":"Contrast","correct_response":"arrowdown","trial_type":"image-keyboard-response","trial_index":114,"time_elapsed":234007,"internal_node_id":"0.0-5.0-2.0-1.16","screen_height":616,"screen_width":1280,"browser":"chrome","browser_version":"103.0.0","mobile":false,"os":"Windows 10","vsync_rate":60.47,"participant_id":"S00","prestimulus_duration":261,"correct":true,"type":"Contrast","illusion_strength":-30,"illusion_difference":-24,"block_number":2,"trial_number":17},{"rt":null,"stimulus":"<div style=\"font-size:60px;\">+</div>","response":null,"screen":"fixation","trial_type":"html-keyboard-response","trial_index":115,"time_elapsed":234989,"internal_node_id":"0.0-5.0-2.0-0.17","screen_height":616,"screen_width":1280,"browser":"chrome","browser_version":"103.0.0","mobile":false,"os":"Windows 10","vsync_rate":60.47,"participant_id":"S00","trial_duration":970},{"rt":801,"stimulus":"stimuli/Contrast_str30.0_diff8.0.png","response":"arrowup","screen":"Trial","block":"Contrast","correct_response":"arrowup","trial_type":"image-keyboard-response","trial_index":116,"time_elapsed":235792,"internal_node_id":"0.0-5.0-2.0-1.17","screen_height":616,"screen_width":1280,"browser":"chrome","browser_version":"103.0.0","mobile":false,"os":"Windows 10","vsync_rate":60.47,"participant_id":"S00","prestimulus_duration":982,"correct":true,"type":"Contrast","illusion_strength":30,"illusion_difference":8,"block_number":2,"trial_number":18},{"rt":null,"stimulus":"<div style=\"font-size:60px;\">+</div>","response":null,"screen":"fixation","trial_type":"html-keyboard-response","trial_index":117,"time_elapsed":236302,"internal_node_id":"0.0-5.0-2.0-0.18","screen_height":616,"screen_width":1280,"browser":"chrome","browser_version":"103.0.0","mobile":false,"os":"Windows 10","vsync_rate":60.47,"participant_id":"S00","trial_duration":498},{"rt":1724,"stimulus":"stimuli/Contrast_str-50.0_diff40.0.png","response":"arrowup","screen":"Trial","block":"Contrast","correct_response":"arrowup","trial_type":"image-keyboard-response","trial_index":118,"time_elapsed":238028,"internal_node_id":"0.0-5.0-2.0-1.18","screen_height":616,"screen_width":1280,"browser":"chrome","browser_version":"103.0.0","mobile":false,"os":"Windows 10","vsync_rate":60.47,"participant_id":"S00","prestimulus_duration":510,"correct":true,"type":"Contrast","illusion_strength":-50,"illusion_difference":40,"block_number":2,"trial_number":19},{"rt":null,"stimulus":"<div style=\"font-size:60px;\">+</div>","response":null,"screen":"fixation","trial_type":"html-keyboard-response","trial_index":119,"time_elapsed":238295,"internal_node_id":"0.0-5.0-2.0-0.19","screen_height":616,"screen_width":1280,"browser":"chrome","browser_version":"103.0.0","mobile":false,"os":"Windows 10","vsync_rate":60.47,"participant_id":"S00","trial_duration":264},{"rt":690,"stimulus":"stimuli/Contrast_str10.0_diff40.0.png","response":"arrowup","screen":"Trial","block":"Contrast","correct_response":"arrowup","trial_type":"image-keyboard-response","trial_index":120,"time_elapsed":238987,"internal_node_id":"0.0-5.0-2.0-1.19","screen_height":616,"screen_width":1280,"browser":"chrome","browser_version":"103.0.0","mobile":false,"os":"Windows 10","vsync_rate":60.47,"participant_id":"S00","prestimulus_duration":267,"correct":true,"type":"Contrast","illusion_strength":10,"illusion_difference":40,"block_number":2,"trial_number":20},{"rt":null,"stimulus":"<div style=\"font-size:60px;\">+</div>","response":null,"screen":"fixation","trial_type":"html-keyboard-response","trial_index":121,"time_elapsed":239930,"internal_node_id":"0.0-5.0-2.0-0.20","screen_height":616,"screen_width":1280,"browser":"chrome","browser_version":"103.0.0","mobile":false,"os":"Windows 10","vsync_rate":60.47,"participant_id":"S00","trial_duration":941},{"rt":937,"stimulus":"stimuli/Contrast_str-50.0_diff-8.0.png","response":"arrowup","screen":"Trial","block":"Contrast","correct_response":"arrowdown","trial_type":"image-keyboard-response","trial_index":122,"time_elapsed":240869,"internal_node_id":"0.0-5.0-2.0-1.20","screen_height":616,"screen_width":1280,"browser":"chrome","browser_version":"103.0.0","mobile":false,"os":"Windows 10","vsync_rate":60.47,"participant_id":"S00","prestimulus_duration":943,"correct":false,"type":"Contrast","illusion_strength":-50,"illusion_difference":-8,"block_number":2,"trial_number":21},{"rt":null,"stimulus":"<div style=\"font-size:60px;\">+</div>","response":null,"screen":"fixation","trial_type":"html-keyboard-response","trial_index":123,"time_elapsed":241642,"internal_node_id":"0.0-5.0-2.0-0.21","screen_height":616,"screen_width":1280,"browser":"chrome","browser_version":"103.0.0","mobile":false,"os":"Windows 10","vsync_rate":60.47,"participant_id":"S00","trial_duration":763},{"rt":903,"stimulus":"stimuli/Contrast_str10.0_diff-40.0.png","response":"arrowdown","screen":"Trial","block":"Contrast","correct_response":"arrowdown","trial_type":"image-keyboard-response","trial_index":124,"time_elapsed":242546,"internal_node_id":"0.0-5.0-2.0-1.21","screen_height":616,"screen_width":1280,"browser":"chrome","browser_version":"103.0.0","mobile":false,"os":"Windows 10","vsync_rate":60.47,"participant_id":"S00","prestimulus_duration":773,"correct":true,"type":"Contrast","illusion_strength":10,"illusion_difference":-40,"block_number":2,"trial_number":22},{"rt":null,"stimulus":"<div style=\"font-size:60px;\">+</div>","response":null,"screen":"fixation","trial_type":"html-keyboard-response","trial_index":125,"time_elapsed":243236,"internal_node_id":"0.0-5.0-2.0-0.22","screen_height":616,"screen_width":1280,"browser":"chrome","browser_version":"103.0.0","mobile":false,"os":"Windows 10","vsync_rate":60.47,"participant_id":"S00","trial_duration":684},{"rt":848,"stimulus":"stimuli/Contrast_str-10.0_diff-40.0.png","response":"arrowdown","screen":"Trial","block":"Contrast","correct_response":"arrowdown","trial_type":"image-keyboard-response","trial_index":126,"time_elapsed":244085,"internal_node_id":"0.0-5.0-2.0-1.22","screen_height":616,"screen_width":1280,"browser":"chrome","browser_version":"103.0.0","mobile":false,"os":"Windows 10","vsync_rate":60.47,"participant_id":"S00","prestimulus_duration":690,"correct":true,"type":"Contrast","illusion_strength":-10,"illusion_difference":-40,"block_number":2,"trial_number":23},{"rt":null,"stimulus":"<div style=\"font-size:60px;\">+</div>","response":null,"screen":"fixation","trial_type":"html-keyboard-response","trial_index":127,"time_elapsed":244690,"internal_node_id":"0.0-5.0-2.0-0.23","screen_height":616,"screen_width":1280,"browser":"chrome","browser_version":"103.0.0","mobile":false,"os":"Windows 10","vsync_rate":60.47,"participant_id":"S00","trial_duration":590},{"rt":811,"stimulus":"stimuli/Contrast_str-30.0_diff40.0.png","response":"arrowup","screen":"Trial","block":"Contrast","correct_response":"arrowup","trial_type":"image-keyboard-response","trial_index":128,"time_elapsed":245502,"internal_node_id":"0.0-5.0-2.0-1.23","screen_height":616,"screen_width":1280,"browser":"chrome","browser_version":"103.0.0","mobile":false,"os":"Windows 10","vsync_rate":60.47,"participant_id":"S00","prestimulus_duration":605,"correct":true,"type":"Contrast","illusion_strength":-30,"illusion_difference":40,"block_number":2,"trial_number":24},{"rt":null,"stimulus":"<div style=\"font-size:60px;\">+</div>","response":null,"screen":"fixation","trial_type":"html-keyboard-response","trial_index":129,"time_elapsed":245956,"internal_node_id":"0.0-5.0-2.0-0.24","screen_height":616,"screen_width":1280,"browser":"chrome","browser_version":"103.0.0","mobile":false,"os":"Windows 10","vsync_rate":60.47,"participant_id":"S00","trial_duration":452},{"rt":749,"stimulus":"stimuli/Contrast_str10.0_diff-24.0.png","response":"arrowdown","screen":"Trial","block":"Contrast","correct_response":"arrowdown","trial_type":"image-keyboard-response","trial_index":130,"time_elapsed":246706,"internal_node_id":"0.0-5.0-2.0-1.24","screen_height":616,"screen_width":1280,"browser":"chrome","browser_version":"103.0.0","mobile":false,"os":"Windows 10","vsync_rate":60.47,"participant_id":"S00","prestimulus_duration":454,"correct":true,"type":"Contrast","illusion_strength":10,"illusion_difference":-24,"block_number":2,"trial_number":25},{"rt":null,"stimulus":"<div style=\"font-size:60px;\">+</div>","response":null,"screen":"fixation","trial_type":"html-keyboard-response","trial_index":131,"time_elapsed":247436,"internal_node_id":"0.0-5.0-2.0-0.25","screen_height":616,"screen_width":1280,"browser":"chrome","browser_version":"103.0.0","mobile":false,"os":"Windows 10","vsync_rate":60.47,"participant_id":"S00","trial_duration":690},{"rt":670,"stimulus":"stimuli/Contrast_str50.0_diff-8.0.png","response":"arrowdown","screen":"Trial","block":"Contrast","correct_response":"arrowdown","trial_type":"image-keyboard-response","trial_index":132,"time_elapsed":248106,"internal_node_id":"0.0-5.0-2.0-1.25","screen_height":616,"screen_width":1280,"browser":"chrome","browser_version":"103.0.0","mobile":false,"os":"Windows 10","vsync_rate":60.47,"participant_id":"S00","prestimulus_duration":730,"correct":true,"type":"Contrast","illusion_strength":50,"illusion_difference":-8,"block_number":2,"trial_number":26},{"rt":null,"stimulus":"<div style=\"font-size:60px;\">+</div>","response":null,"screen":"fixation","trial_type":"html-keyboard-response","trial_index":133,"time_elapsed":249079,"internal_node_id":"0.0-5.0-2.0-0.26","screen_height":616,"screen_width":1280,"browser":"chrome","browser_version":"103.0.0","mobile":false,"os":"Windows 10","vsync_rate":60.47,"participant_id":"S00","trial_duration":964},{"rt":652,"stimulus":"stimuli/Contrast_str50.0_diff24.0.png","response":"arrowup","screen":"Trial","block":"Contrast","correct_response":"arrowup","trial_type":"image-keyboard-response","trial_index":134,"time_elapsed":249733,"internal_node_id":"0.0-5.0-2.0-1.26","screen_height":616,"screen_width":1280,"browser":"chrome","browser_version":"103.0.0","mobile":false,"os":"Windows 10","vsync_rate":60.47,"participant_id":"S00","prestimulus_duration":973,"correct":true,"type":"Contrast","illusion_strength":50,"illusion_difference":24,"block_number":2,"trial_number":27},{"rt":null,"stimulus":"<div style=\"font-size:60px;\">+</div>","response":null,"screen":"fixation","trial_type":"html-keyboard-response","trial_index":135,"time_elapsed":250129,"internal_node_id":"0.0-5.0-2.0-0.27","screen_height":616,"screen_width":1280,"browser":"chrome","browser_version":"103.0.0","mobile":false,"os":"Windows 10","vsync_rate":60.47,"participant_id":"S00","trial_duration":387},{"rt":787,"stimulus":"stimuli/Contrast_str30.0_diff-24.0.png","response":"arrowdown","screen":"Trial","block":"Contrast","correct_response":"arrowdown","trial_type":"image-keyboard-response","trial_index":136,"time_elapsed":250917,"internal_node_id":"0.0-5.0-2.0-1.27","screen_height":616,"screen_width":1280,"browser":"chrome","browser_version":"103.0.0","mobile":false,"os":"Windows 10","vsync_rate":60.47,"participant_id":"S00","prestimulus_duration":396,"correct":true,"type":"Contrast","illusion_strength":30,"illusion_difference":-24,"block_number":2,"trial_number":28},{"rt":null,"stimulus":"<div style=\"font-size:60px;\">+</div>","response":null,"screen":"fixation","trial_type":"html-keyboard-response","trial_index":137,"time_elapsed":251223,"internal_node_id":"0.0-5.0-2.0-0.28","screen_height":616,"screen_width":1280,"browser":"chrome","browser_version":"103.0.0","mobile":false,"os":"Windows 10","vsync_rate":60.47,"participant_id":"S00","trial_duration":290},{"rt":718,"stimulus":"stimuli/Contrast_str-30.0_diff24.0.png","response":"arrowup","screen":"Trial","block":"Contrast","correct_response":"arrowup","trial_type":"image-keyboard-response","trial_index":138,"time_elapsed":251942,"internal_node_id":"0.0-5.0-2.0-1.28","screen_height":616,"screen_width":1280,"browser":"chrome","browser_version":"103.0.0","mobile":false,"os":"Windows 10","vsync_rate":60.47,"participant_id":"S00","prestimulus_duration":306,"correct":true,"type":"Contrast","illusion_strength":-30,"illusion_difference":24,"block_number":2,"trial_number":29},{"rt":null,"stimulus":"<div style=\"font-size:60px;\">+</div>","response":null,"screen":"fixation","trial_type":"html-keyboard-response","trial_index":139,"time_elapsed":252644,"internal_node_id":"0.0-5.0-2.0-0.29","screen_height":616,"screen_width":1280,"browser":"chrome","browser_version":"103.0.0","mobile":false,"os":"Windows 10","vsync_rate":60.47,"participant_id":"S00","trial_duration":689},{"rt":634,"stimulus":"stimuli/Contrast_str30.0_diff24.0.png","response":"arrowup","screen":"Trial","block":"Contrast","correct_response":"arrowup","trial_type":"image-keyboard-response","trial_index":140,"time_elapsed":253279,"internal_node_id":"0.0-5.0-2.0-1.29","screen_height":616,"screen_width":1280,"browser":"chrome","browser_version":"103.0.0","mobile":false,"os":"Windows 10","vsync_rate":60.47,"participant_id":"S00","prestimulus_duration":702,"correct":true,"type":"Contrast","illusion_strength":30,"illusion_difference":24,"block_number":2,"trial_number":30},{"rt":null,"stimulus":"<div style=\"font-size:60px;\">+</div>","response":null,"screen":"fixation","trial_type":"html-keyboard-response","trial_index":141,"time_elapsed":253618,"internal_node_id":"0.0-5.0-2.0-0.30","screen_height":616,"screen_width":1280,"browser":"chrome","browser_version":"103.0.0","mobile":false,"os":"Windows 10","vsync_rate":60.47,"participant_id":"S00","trial_duration":329},{"rt":841,"stimulus":"stimuli/Contrast_str-50.0_diff24.0.png","response":"arrowup","screen":"Trial","block":"Contrast","correct_response":"arrowup","trial_type":"image-keyboard-response","trial_index":142,"time_elapsed":254461,"internal_node_id":"0.0-5.0-2.0-1.30","screen_height":616,"screen_width":1280,"browser":"chrome","browser_version":"103.0.0","mobile":false,"os":"Windows 10","vsync_rate":60.47,"participant_id":"S00","prestimulus_duration":339,"correct":true,"type":"Contrast","illusion_strength":-50,"illusion_difference":24,"block_number":2,"trial_number":31},{"rt":null,"stimulus":"<div style=\"font-size:60px;\">+</div>","response":null,"screen":"fixation","trial_type":"html-keyboard-response","trial_index":143,"time_elapsed":255288,"internal_node_id":"0.0-5.0-2.0-0.31","screen_height":616,"screen_width":1280,"browser":"chrome","browser_version":"103.0.0","mobile":false,"os":"Windows 10","vsync_rate":60.47,"participant_id":"S00","trial_duration":821},{"rt":631,"stimulus":"stimuli/Contrast_str-50.0_diff-24.0.png","response":"arrowup","screen":"Trial","block":"Contrast","correct_response":"arrowdown","trial_type":"image-keyboard-response","trial_index":144,"time_elapsed":255921,"internal_node_id":"0.0-5.0-2.0-1.31","screen_height":616,"screen_width":1280,"browser":"chrome","browser_version":"103.0.0","mobile":false,"os":"Windows 10","vsync_rate":60.47,"participant_id":"S00","prestimulus_duration":827,"correct":false,"type":"Contrast","illusion_strength":-50,"illusion_difference":-24,"block_number":2,"trial_number":32},{"rt":null,"stimulus":"<div style=\"font-size:60px;\">+</div>","response":null,"screen":"fixation","trial_type":"html-keyboard-response","trial_index":145,"time_elapsed":256559,"internal_node_id":"0.0-5.0-2.0-0.32","screen_height":616,"screen_width":1280,"browser":"chrome","browser_version":"103.0.0","mobile":false,"os":"Windows 10","vsync_rate":60.47,"participant_id":"S00","trial_duration":631},{"rt":709,"stimulus":"stimuli/Contrast_str30.0_diff-40.0.png","response":"arrowdown","screen":"Trial","block":"Contrast","correct_response":"arrowdown","trial_type":"image-keyboard-response","trial_index":146,"time_elapsed":257270,"internal_node_id":"0.0-5.0-2.0-1.32","screen_height":616,"screen_width":1280,"browser":"chrome","browser_version":"103.0.0","mobile":false,"os":"Windows 10","vsync_rate":60.47,"participant_id":"S00","prestimulus_duration":638,"correct":true,"type":"Contrast","illusion_strength":30,"illusion_difference":-40,"block_number":2,"trial_number":33},{"rt":null,"stimulus":"<div style=\"font-size:60px;\">+</div>","response":null,"screen":"fixation","trial_type":"html-keyboard-response","trial_index":147,"time_elapsed":258175,"internal_node_id":"0.0-5.0-2.0-0.33","screen_height":616,"screen_width":1280,"browser":"chrome","browser_version":"103.0.0","mobile":false,"os":"Windows 10","vsync_rate":60.47,"participant_id":"S00","trial_duration":891},{"rt":645,"stimulus":"stimuli/Contrast_str10.0_diff24.0.png","response":"arrowup","screen":"Trial","block":"Contrast","correct_response":"arrowup","trial_type":"image-keyboard-response","trial_index":148,"time_elapsed":258821,"internal_node_id":"0.0-5.0-2.0-1.33","screen_height":616,"screen_width":1280,"browser":"chrome","browser_version":"103.0.0","mobile":false,"os":"Windows 10","vsync_rate":60.47,"participant_id":"S00","prestimulus_duration":905,"correct":true,"type":"Contrast","illusion_strength":10,"illusion_difference":24,"block_number":2,"trial_number":34},{"rt":null,"stimulus":"<div style=\"font-size:60px;\">+</div>","response":null,"screen":"fixation","trial_type":"html-keyboard-response","trial_index":149,"time_elapsed":259739,"internal_node_id":"0.0-5.0-2.0-0.34","screen_height":616,"screen_width":1280,"browser":"chrome","browser_version":"103.0.0","mobile":false,"os":"Windows 10","vsync_rate":60.47,"participant_id":"S00","trial_duration":902},{"rt":645,"stimulus":"stimuli/Contrast_str50.0_diff8.0.png","response":"arrowup","screen":"Trial","block":"Contrast","correct_response":"arrowup","trial_type":"image-keyboard-response","trial_index":150,"time_elapsed":260385,"internal_node_id":"0.0-5.0-2.0-1.34","screen_height":616,"screen_width":1280,"browser":"chrome","browser_version":"103.0.0","mobile":false,"os":"Windows 10","vsync_rate":60.47,"participant_id":"S00","prestimulus_duration":918,"correct":true,"type":"Contrast","illusion_strength":50,"illusion_difference":8,"block_number":2,"trial_number":35},{"rt":null,"stimulus":"<div style=\"font-size:60px;\">+</div>","response":null,"screen":"fixation","trial_type":"html-keyboard-response","trial_index":151,"time_elapsed":260968,"internal_node_id":"0.0-5.0-2.0-0.35","screen_height":616,"screen_width":1280,"browser":"chrome","browser_version":"103.0.0","mobile":false,"os":"Windows 10","vsync_rate":60.47,"participant_id":"S00","trial_duration":574},{"rt":784,"stimulus":"stimuli/Contrast_str-10.0_diff8.0.png","response":"arrowup","screen":"Trial","block":"Contrast","correct_response":"arrowup","trial_type":"image-keyboard-response","trial_index":152,"time_elapsed":261753,"internal_node_id":"0.0-5.0-2.0-1.35","screen_height":616,"screen_width":1280,"browser":"chrome","browser_version":"103.0.0","mobile":false,"os":"Windows 10","vsync_rate":60.47,"participant_id":"S00","prestimulus_duration":583,"correct":true,"type":"Contrast","illusion_strength":-10,"illusion_difference":8,"block_number":2,"trial_number":36},{"rt":2112,"stimulus":"<p>Your score for this illusion is <p style=\"color: black; font-size: 48px; font-weight: bold;\">4132</p><hr><hr><p>Can you do better in the next illusion?</p>","response":0,"screen":"block_results","trial_type":"html-button-response","trial_index":153,"time_elapsed":263872,"internal_node_id":"0.0-5.0-3.0","screen_height":616,"screen_width":1280,"browser":"chrome","browser_version":"103.0.0","mobile":false,"os":"Windows 10","vsync_rate":60.47,"participant_id":"S00"},{"success":true,"timeout":false,"failed_images":[],"failed_audio":[],"failed_video":[],"trial_type":"preload","trial_index":154,"time_elapsed":263876,"internal_node_id":"0.0-6.0-0.0","screen_height":616,"screen_width":1280,"browser":"chrome","browser_version":"103.0.0","mobile":false,"os":"Windows 10","vsync_rate":60.47,"participant_id":"S00"},{"rt":5778,"stimulus":"<p><b>Part 3</b></p><p>In this part, two red circles will appear side by side on the screen.</p><p>Your task is to select which <b>red circle is bigger</b> in size as fast as you can, without making errors.</p><p>Don't get distracted by the black outlines around the red circles!</p><p>Press <b>the LEFT or the RIGHT arrow</b> to indicate where is the biggest <b>red circle.</b></p><div style='float: center'><img src='utils/stimuli_demo/Delboeuf_Demo.png' height='300'></img><p><img src='utils/answer/answer_leftright_keyboard.PNG' height='150'></img></p><p class='small'>In this example, the correct answer is the <b>LEFT arrow</b>.</p></div><p>Are you ready? <b>Press ENTER to start</b></p>","response":"enter","trial_type":"html-keyboard-response","trial_index":155,"time_elapsed":269656,"internal_node_id":"0.0-6.0-1.0","screen_height":616,"screen_width":1280,"browser":"chrome","browser_version":"103.0.0","mobile":false,"os":"Windows 10","vsync_rate":60.47,"participant_id":"S00"},{"rt":null,"stimulus":"<div style=\"font-size:60px;\">+</div>","response":null,"screen":"fixation","trial_type":"html-keyboard-response","trial_index":156,"time_elapsed":270494,"internal_node_id":"0.0-6.0-2.0-0.0","screen_height":616,"screen_width":1280,"browser":"chrome","browser_version":"103.0.0","mobile":false,"os":"Windows 10","vsync_rate":60.47,"participant_id":"S00","trial_duration":327},{"rt":702,"stimulus":"stimuli/Delboeuf_str-0.2_diff-0.6.png","response":"arrowleft","screen":"Trial","block":"Delboeuf","correct_response":"arrowright","trial_type":"image-keyboard-response","trial_index":157,"time_elapsed":271197,"internal_node_id":"0.0-6.0-2.0-1.0","screen_height":616,"screen_width":1280,"browser":"chrome","browser_version":"103.0.0","mobile":false,"os":"Windows 10","vsync_rate":60.47,"participant_id":"S00","prestimulus_duration":838,"correct":false,"type":"Delboeuf","illusion_strength":-0.19999999999999996,"illusion_difference":-0.6,"block_number":3,"trial_number":1},{"rt":null,"stimulus":"<div style=\"font-size:60px;\">+</div>","response":null,"screen":"fixation","trial_type":"html-keyboard-response","trial_index":158,"time_elapsed":271690,"internal_node_id":"0.0-6.0-2.0-0.1","screen_height":616,"screen_width":1280,"browser":"chrome","browser_version":"103.0.0","mobile":false,"os":"Windows 10","vsync_rate":60.47,"participant_id":"S00","trial_duration":491},{"rt":766,"stimulus":"stimuli/Delboeuf_str0.2_diff0.6.png","response":"arrowleft","screen":"Trial","block":"Delboeuf","correct_response":"arrowleft","trial_type":"image-keyboard-response","trial_index":159,"time_elapsed":272458,"internal_node_id":"0.0-6.0-2.0-1.1","screen_height":616,"screen_width":1280,"browser":"chrome","browser_version":"103.0.0","mobile":false,"os":"Windows 10","vsync_rate":60.47,"participant_id":"S00","prestimulus_duration":493,"correct":true,"type":"Delboeuf","illusion_strength":0.20000000000000018,"illusion_difference":0.6000000000000001,"block_number":3,"trial_number":2},{"rt":null,"stimulus":"<div style=\"font-size:60px;\">+</div>","response":null,"screen":"fixation","trial_type":"html-keyboard-response","trial_index":160,"time_elapsed":272799,"internal_node_id":"0.0-6.0-2.0-0.2","screen_height":616,"screen_width":1280,"browser":"chrome","browser_version":"103.0.0","mobile":false,"os":"Windows 10","vsync_rate":60.47,"participant_id":"S00","trial_duration":336},{"rt":843,"stimulus":"stimuli/Delboeuf_str0.2_diff0.2.png","response":"arrowleft","screen":"Trial","block":"Delboeuf","correct_response":"arrowleft","trial_type":"image-keyboard-response","trial_index":161,"time_elapsed":273643,"internal_node_id":"0.0-6.0-2.0-1.2","screen_height":616,"screen_width":1280,"browser":"chrome","browser_version":"103.0.0","mobile":false,"os":"Windows 10","vsync_rate":60.47,"participant_id":"S00","prestimulus_duration":341,"correct":true,"type":"Delboeuf","illusion_strength":0.20000000000000018,"illusion_difference":0.20000000000000018,"block_number":3,"trial_number":3},{"rt":null,"stimulus":"<div style=\"font-size:60px;\">+</div>","response":null,"screen":"fixation","trial_type":"html-keyboard-response","trial_index":162,"time_elapsed":274390,"internal_node_id":"0.0-6.0-2.0-0.3","screen_height":616,"screen_width":1280,"browser":"chrome","browser_version":"103.0.0","mobile":false,"os":"Windows 10","vsync_rate":60.47,"participant_id":"S00","trial_duration":743},{"rt":799,"stimulus":"stimuli/Delboeuf_str-0.6_diff-0.2.png","response":"arrowright","screen":"Trial","block":"Delboeuf","correct_response":"arrowright","trial_type":"image-keyboard-response","trial_index":163,"time_elapsed":275191,"internal_node_id":"0.0-6.0-2.0-1.3","screen_height":616,"screen_width":1280,"browser":"chrome","browser_version":"103.0.0","mobile":false,"os":"Windows 10","vsync_rate":60.47,"participant_id":"S00","prestimulus_duration":747,"correct":true,"type":"Delboeuf","illusion_strength":-0.6,"illusion_difference":-0.19999999999999996,"block_number":3,"trial_number":4},{"rt":null,"stimulus":"<div style=\"font-size:60px;\">+</div>","response":null,"screen":"fixation","trial_type":"html-keyboard-response","trial_index":164,"time_elapsed":275573,"internal_node_id":"0.0-6.0-2.0-0.4","screen_height":616,"screen_width":1280,"browser":"chrome","browser_version":"103.0.0","mobile":false,"os":"Windows 10","vsync_rate":60.47,"participant_id":"S00","trial_duration":370},{"rt":712,"stimulus":"stimuli/Delboeuf_str1.0_diff0.6.png","response":"arrowleft","screen":"Trial","block":"Delboeuf","correct_response":"arrowleft","trial_type":"image-keyboard-response","trial_index":165,"time_elapsed":276286,"internal_node_id":"0.0-6.0-2.0-1.4","screen_height":616,"screen_width":1280,"browser":"chrome","browser_version":"103.0.0","mobile":false,"os":"Windows 10","vsync_rate":60.47,"participant_id":"S00","prestimulus_duration":382,"correct":true,"type":"Delboeuf","illusion_strength":1,"illusion_difference":0.6000000000000001,"block_number":3,"trial_number":5},{"rt":null,"stimulus":"<div style=\"font-size:60px;\">+</div>","response":null,"screen":"fixation","trial_type":"html-keyboard-response","trial_index":166,"time_elapsed":276948,"internal_node_id":"0.0-6.0-2.0-0.5","screen_height":616,"screen_width":1280,"browser":"chrome","browser_version":"103.0.0","mobile":false,"os":"Windows 10","vsync_rate":60.47,"participant_id":"S00","trial_duration":651},{"rt":722,"stimulus":"stimuli/Delboeuf_str1.0_diff-0.2.png","response":"arrowright","screen":"Trial","block":"Delboeuf","correct_response":"arrowright","trial_type":"image-keyboard-response","trial_index":167,"time_elapsed":277671,"internal_node_id":"0.0-6.0-2.0-1.5","screen_height":616,"screen_width":1280,"browser":"chrome","browser_version":"103.0.0","mobile":false,"os":"Windows 10","vsync_rate":60.47,"participant_id":"S00","prestimulus_duration":662,"correct":true,"type":"Delboeuf","illusion_strength":1,"illusion_difference":-0.19999999999999996,"block_number":3,"trial_number":6},{"rt":null,"stimulus":"<div style=\"font-size:60px;\">+</div>","response":null,"screen":"fixation","trial_type":"html-keyboard-response","trial_index":168,"time_elapsed":278403,"internal_node_id":"0.0-6.0-2.0-0.6","screen_height":616,"screen_width":1280,"browser":"chrome","browser_version":"103.0.0","mobile":false,"os":"Windows 10","vsync_rate":60.47,"participant_id":"S00","trial_duration":724},{"rt":699,"stimulus":"stimuli/Delboeuf_str-0.6_diff0.2.png","response":"arrowleft","screen":"Trial","block":"Delboeuf","correct_response":"arrowleft","trial_type":"image-keyboard-response","trial_index":169,"time_elapsed":279130,"internal_node_id":"0.0-6.0-2.0-1.6","screen_height":616,"screen_width":1280,"browser":"chrome","browser_version":"103.0.0","mobile":false,"os":"Windows 10","vsync_rate":60.47,"participant_id":"S00","prestimulus_duration":732,"correct":true,"type":"Delboeuf","illusion_strength":-0.6,"illusion_difference":0.20000000000000018,"block_number":3,"trial_number":7},{"rt":null,"stimulus":"<div style=\"font-size:60px;\">+</div>","response":null,"screen":"fixation","trial_type":"html-keyboard-response","trial_index":170,"time_elapsed":279975,"internal_node_id":"0.0-6.0-2.0-0.7","screen_height":616,"screen_width":1280,"browser":"chrome","browser_version":"103.0.0","mobile":false,"os":"Windows 10","vsync_rate":60.47,"participant_id":"S00","trial_duration":842},{"rt":665,"stimulus":"stimuli/Delboeuf_str-1.0_diff1.0.png","response":"arrowleft","screen":"Trial","block":"Delboeuf","correct_response":"arrowleft","trial_type":"image-keyboard-response","trial_index":171,"time_elapsed":280641,"internal_node_id":"0.0-6.0-2.0-1.7","screen_height":616,"screen_width":1280,"browser":"chrome","browser_version":"103.0.0","mobile":false,"os":"Windows 10","vsync_rate":60.47,"participant_id":"S00","prestimulus_duration":845,"correct":true,"type":"Delboeuf","illusion_strength":-1,"illusion_difference":1,"block_number":3,"trial_number":8},{"rt":null,"stimulus":"<div style=\"font-size:60px;\">+</div>","response":null,"screen":"fixation","trial_type":"html-keyboard-response","trial_index":172,"time_elapsed":281212,"internal_node_id":"0.0-6.0-2.0-0.8","screen_height":616,"screen_width":1280,"browser":"chrome","browser_version":"103.0.0","mobile":false,"os":"Windows 10","vsync_rate":60.47,"participant_id":"S00","trial_duration":569},{"rt":675,"stimulus":"stimuli/Delboeuf_str-0.2_diff-0.2.png","response":"arrowright","screen":"Trial","block":"Delboeuf","correct_response":"arrowright","trial_type":"image-keyboard-response","trial_index":173,"time_elapsed":281889,"internal_node_id":"0.0-6.0-2.0-1.8","screen_height":616,"screen_width":1280,"browser":"chrome","browser_version":"103.0.0","mobile":false,"os":"Windows 10","vsync_rate":60.47,"participant_id":"S00","prestimulus_duration":571,"correct":true,"type":"Delboeuf","illusion_strength":-0.19999999999999996,"illusion_difference":-0.19999999999999996,"block_number":3,"trial_number":9},{"rt":null,"stimulus":"<div style=\"font-size:60px;\">+</div>","response":null,"screen":"fixation","trial_type":"html-keyboard-response","trial_index":174,"time_elapsed":282873,"internal_node_id":"0.0-6.0-2.0-0.9","screen_height":616,"screen_width":1280,"browser":"chrome","browser_version":"103.0.0","mobile":false,"os":"Windows 10","vsync_rate":60.47,"participant_id":"S00","trial_duration":977},{"rt":801,"stimulus":"stimuli/Delboeuf_str-1.0_diff-0.2.png","response":"arrowright","screen":"Trial","block":"Delboeuf","correct_response":"arrowright","trial_type":"image-keyboard-response","trial_index":175,"time_elapsed":283674,"internal_node_id":"0.0-6.0-2.0-1.9","screen_height":616,"screen_width":1280,"browser":"chrome","browser_version":"103.0.0","mobile":false,"os":"Windows 10","vsync_rate":60.47,"participant_id":"S00","prestimulus_duration":984,"correct":true,"type":"Delboeuf","illusion_strength":-1,"illusion_difference":-0.19999999999999996,"block_number":3,"trial_number":10},{"rt":null,"stimulus":"<div style=\"font-size:60px;\">+</div>","response":null,"screen":"fixation","trial_type":"html-keyboard-response","trial_index":176,"time_elapsed":284387,"internal_node_id":"0.0-6.0-2.0-0.10","screen_height":616,"screen_width":1280,"browser":"chrome","browser_version":"103.0.0","mobile":false,"os":"Windows 10","vsync_rate":60.47,"participant_id":"S00","trial_duration":697},{"rt":665,"stimulus":"stimuli/Delboeuf_str-0.6_diff-1.0.png","response":"arrowright","screen":"Trial","block":"Delboeuf","correct_response":"arrowright","trial_type":"image-keyboard-response","trial_index":177,"time_elapsed":285054,"internal_node_id":"0.0-6.0-2.0-1.10","screen_height":616,"screen_width":1280,"browser":"chrome","browser_version":"103.0.0","mobile":false,"os":"Windows 10","vsync_rate":60.47,"participant_id":"S00","prestimulus_duration":713,"correct":true,"type":"Delboeuf","illusion_strength":-0.6,"illusion_difference":-1,"block_number":3,"trial_number":11},{"rt":null,"stimulus":"<div style=\"font-size:60px;\">+</div>","response":null,"screen":"fixation","trial_type":"html-keyboard-response","trial_index":178,"time_elapsed":285488,"internal_node_id":"0.0-6.0-2.0-0.11","screen_height":616,"screen_width":1280,"browser":"chrome","browser_version":"103.0.0","mobile":false,"os":"Windows 10","vsync_rate":60.47,"participant_id":"S00","trial_duration":429},{"rt":679,"stimulus":"stimuli/Delboeuf_str0.6_diff0.6.png","response":"arrowleft","screen":"Trial","block":"Delboeuf","correct_response":"arrowleft","trial_type":"image-keyboard-response","trial_index":179,"time_elapsed":286169,"internal_node_id":"0.0-6.0-2.0-1.11","screen_height":616,"screen_width":1280,"browser":"chrome","browser_version":"103.0.0","mobile":false,"os":"Windows 10","vsync_rate":60.47,"participant_id":"S00","prestimulus_duration":434,"correct":true,"type":"Delboeuf","illusion_strength":0.6000000000000001,"illusion_difference":0.6000000000000001,"block_number":3,"trial_number":12},{"rt":null,"stimulus":"<div style=\"font-size:60px;\">+</div>","response":null,"screen":"fixation","trial_type":"html-keyboard-response","trial_index":180,"time_elapsed":286587,"internal_node_id":"0.0-6.0-2.0-0.12","screen_height":616,"screen_width":1280,"browser":"chrome","browser_version":"103.0.0","mobile":false,"os":"Windows 10","vsync_rate":60.47,"participant_id":"S00","trial_duration":401},{"rt":684,"stimulus":"stimuli/Delboeuf_str0.2_diff-1.0.png","response":"arrowright","screen":"Trial","block":"Delboeuf","correct_response":"arrowright","trial_type":"image-keyboard-response","trial_index":181,"time_elapsed":287273,"internal_node_id":"0.0-6.0-2.0-1.12","screen_height":616,"screen_width":1280,"browser":"chrome","browser_version":"103.0.0","mobile":false,"os":"Windows 10","vsync_rate":60.47,"participant_id":"S00","prestimulus_duration":418,"correct":true,"type":"Delboeuf","illusion_strength":0.20000000000000018,"illusion_difference":-1,"block_number":3,"trial_number":13},{"rt":null,"stimulus":"<div style=\"font-size:60px;\">+</div>","response":null,"screen":"fixation","trial_type":"html-keyboard-response","trial_index":182,"time_elapsed":288183,"internal_node_id":"0.0-6.0-2.0-0.13","screen_height":616,"screen_width":1280,"browser":"chrome","browser_version":"103.0.0","mobile":false,"os":"Windows 10","vsync_rate":60.47,"participant_id":"S00","trial_duration":894},{"rt":655,"stimulus":"stimuli/Delboeuf_str0.2_diff1.0.png","response":"arrowleft","screen":"Trial","block":"Delboeuf","correct_response":"arrowleft","trial_type":"image-keyboard-response","trial_index":183,"time_elapsed":288839,"internal_node_id":"0.0-6.0-2.0-1.13","screen_height":616,"screen_width":1280,"browser":"chrome","browser_version":"103.0.0","mobile":false,"os":"Windows 10","vsync_rate":60.47,"participant_id":"S00","prestimulus_duration":910,"correct":true,"type":"Delboeuf","illusion_strength":0.20000000000000018,"illusion_difference":1,"block_number":3,"trial_number":14},{"rt":null,"stimulus":"<div style=\"font-size:60px;\">+</div>","response":null,"screen":"fixation","trial_type":"html-keyboard-response","trial_index":184,"time_elapsed":289601,"internal_node_id":"0.0-6.0-2.0-0.14","screen_height":616,"screen_width":1280,"browser":"chrome","browser_version":"103.0.0","mobile":false,"os":"Windows 10","vsync_rate":60.47,"participant_id":"S00","trial_duration":758},{"rt":892,"stimulus":"stimuli/Delboeuf_str-0.6_diff-0.6.png","response":"arrowright","screen":"Trial","block":"Delboeuf","correct_response":"arrowright","trial_type":"image-keyboard-response","trial_index":185,"time_elapsed":290495,"internal_node_id":"0.0-6.0-2.0-1.14","screen_height":616,"screen_width":1280,"browser":"chrome","browser_version":"103.0.0","mobile":false,"os":"Windows 10","vsync_rate":60.47,"participant_id":"S00","prestimulus_duration":762,"correct":true,"type":"Delboeuf","illusion_strength":-0.6,"illusion_difference":-0.6,"block_number":3,"trial_number":15},{"rt":null,"stimulus":"<div style=\"font-size:60px;\">+</div>","response":null,"screen":"fixation","trial_type":"html-keyboard-response","trial_index":186,"time_elapsed":291341,"internal_node_id":"0.0-6.0-2.0-0.15","screen_height":616,"screen_width":1280,"browser":"chrome","browser_version":"103.0.0","mobile":false,"os":"Windows 10","vsync_rate":60.47,"participant_id":"S00","trial_duration":836},{"rt":669,"stimulus":"stimuli/Delboeuf_str-0.6_diff0.6.png","response":"arrowleft","screen":"Trial","block":"Delboeuf","correct_response":"arrowleft","trial_type":"image-keyboard-response","trial_index":187,"time_elapsed":292011,"internal_node_id":"0.0-6.0-2.0-1.15","screen_height":616,"screen_width":1280,"browser":"chrome","browser_version":"103.0.0","mobile":false,"os":"Windows 10","vsync_rate":60.47,"participant_id":"S00","prestimulus_duration":846,"correct":true,"type":"Delboeuf","illusion_strength":-0.6,"illusion_difference":0.6000000000000001,"block_number":3,"trial_number":16},{"rt":null,"stimulus":"<div style=\"font-size:60px;\">+</div>","response":null,"screen":"fixation","trial_type":"html-keyboard-response","trial_index":188,"time_elapsed":292424,"internal_node_id":"0.0-6.0-2.0-0.16","screen_height":616,"screen_width":1280,"browser":"chrome","browser_version":"103.0.0","mobile":false,"os":"Windows 10","vsync_rate":60.47,"participant_id":"S00","trial_duration":399},{"rt":777,"stimulus":"stimuli/Delboeuf_str0.2_diff-0.2.png","response":"arrowleft","screen":"Trial","block":"Delboeuf","correct_response":"arrowright","trial_type":"image-keyboard-response","trial_index":189,"time_elapsed":293202,"internal_node_id":"0.0-6.0-2.0-1.16","screen_height":616,"screen_width":1280,"browser":"chrome","browser_version":"103.0.0","mobile":false,"os":"Windows 10","vsync_rate":60.47,"participant_id":"S00","prestimulus_duration":413,"correct":false,"type":"Delboeuf","illusion_strength":0.20000000000000018,"illusion_difference":-0.19999999999999996,"block_number":3,"trial_number":17},{"rt":null,"stimulus":"<div style=\"font-size:60px;\">+</div>","response":null,"screen":"fixation","trial_type":"html-keyboard-response","trial_index":190,"time_elapsed":294116,"internal_node_id":"0.0-6.0-2.0-0.17","screen_height":616,"screen_width":1280,"browser":"chrome","browser_version":"103.0.0","mobile":false,"os":"Windows 10","vsync_rate":60.47,"participant_id":"S00","trial_duration":897},{"rt":803,"stimulus":"stimuli/Delboeuf_str0.2_diff-0.6.png","response":"arrowleft","screen":"Trial","block":"Delboeuf","correct_response":"arrowright","trial_type":"image-keyboard-response","trial_index":191,"time_elapsed":294920,"internal_node_id":"0.0-6.0-2.0-1.17","screen_height":616,"screen_width":1280,"browser":"chrome","browser_version":"103.0.0","mobile":false,"os":"Windows 10","vsync_rate":60.47,"participant_id":"S00","prestimulus_duration":914,"correct":false,"type":"Delboeuf","illusion_strength":0.20000000000000018,"illusion_difference":-0.6,"block_number":3,"trial_number":18},{"rt":null,"stimulus":"<div style=\"font-size:60px;\">+</div>","response":null,"screen":"fixation","trial_type":"html-keyboard-response","trial_index":192,"time_elapsed":295254,"internal_node_id":"0.0-6.0-2.0-0.18","screen_height":616,"screen_width":1280,"browser":"chrome","browser_version":"103.0.0","mobile":false,"os":"Windows 10","vsync_rate":60.47,"participant_id":"S00","trial_duration":323},{"rt":823,"stimulus":"stimuli/Delboeuf_str-1.0_diff0.2.png","response":"arrowleft","screen":"Trial","block":"Delboeuf","correct_response":"arrowleft","trial_type":"image-keyboard-response","trial_index":193,"time_elapsed":296078,"internal_node_id":"0.0-6.0-2.0-1.18","screen_height":616,"screen_width":1280,"browser":"chrome","browser_version":"103.0.0","mobile":false,"os":"Windows 10","vsync_rate":60.47,"participant_id":"S00","prestimulus_duration":334,"correct":true,"type":"Delboeuf","illusion_strength":-1,"illusion_difference":0.20000000000000018,"block_number":3,"trial_number":19},{"rt":null,"stimulus":"<div style=\"font-size:60px;\">+</div>","response":null,"screen":"fixation","trial_type":"html-keyboard-response","trial_index":194,"time_elapsed":296799,"internal_node_id":"0.0-6.0-2.0-0.19","screen_height":616,"screen_width":1280,"browser":"chrome","browser_version":"103.0.0","mobile":false,"os":"Windows 10","vsync_rate":60.47,"participant_id":"S00","trial_duration":719},{"rt":722,"stimulus":"stimuli/Delboeuf_str0.6_diff-0.2.png","response":"arrowleft","screen":"Trial","block":"Delboeuf","correct_response":"arrowright","trial_type":"image-keyboard-response","trial_index":195,"time_elapsed":297522,"internal_node_id":"0.0-6.0-2.0-1.19","screen_height":616,"screen_width":1280,"browser":"chrome","browser_version":"103.0.0","mobile":false,"os":"Windows 10","vsync_rate":60.47,"participant_id":"S00","prestimulus_duration":721,"correct":false,"type":"Delboeuf","illusion_strength":0.6000000000000001,"illusion_difference":-0.19999999999999996,"block_number":3,"trial_number":20},{"rt":null,"stimulus":"<div style=\"font-size:60px;\">+</div>","response":null,"screen":"fixation","trial_type":"html-keyboard-response","trial_index":196,"time_elapsed":297871,"internal_node_id":"0.0-6.0-2.0-0.20","screen_height":616,"screen_width":1280,"browser":"chrome","browser_version":"103.0.0","mobile":false,"os":"Windows 10","vsync_rate":60.47,"participant_id":"S00","trial_duration":336},{"rt":649,"stimulus":"stimuli/Delboeuf_str0.6_diff1.0.png","response":"arrowleft","screen":"Trial","block":"Delboeuf","correct_response":"arrowleft","trial_type":"image-keyboard-response","trial_index":197,"time_elapsed":298521,"internal_node_id":"0.0-6.0-2.0-1.20","screen_height":616,"screen_width":1280,"browser":"chrome","browser_version":"103.0.0","mobile":false,"os":"Windows 10","vsync_rate":60.47,"participant_id":"S00","prestimulus_duration":349,"correct":true,"type":"Delboeuf","illusion_strength":0.6000000000000001,"illusion_difference":1,"block_number":3,"trial_number":21},{"rt":null,"stimulus":"<div style=\"font-size:60px;\">+</div>","response":null,"screen":"fixation","trial_type":"html-keyboard-response","trial_index":198,"time_elapsed":299020,"internal_node_id":"0.0-6.0-2.0-0.21","screen_height":616,"screen_width":1280,"browser":"chrome","browser_version":"103.0.0","mobile":false,"os":"Windows 10","vsync_rate":60.47,"participant_id":"S00","trial_duration":483},{"rt":734,"stimulus":"stimuli/Delboeuf_str-0.2_diff0.2.png","response":"arrowleft","screen":"Trial","block":"Delboeuf","correct_response":"arrowleft","trial_type":"image-keyboard-response","trial_index":199,"time_elapsed":299784,"internal_node_id":"0.0-6.0-2.0-1.21","screen_height":616,"screen_width":1280,"browser":"chrome","browser_version":"103.0.0","mobile":false,"os":"Windows 10","vsync_rate":60.47,"participant_id":"S00","prestimulus_duration":499,"correct":true,"type":"Delboeuf","illusion_strength":-0.19999999999999996,"illusion_difference":0.20000000000000018,"block_number":3,"trial_number":22},{"rt":null,"stimulus":"<div style=\"font-size:60px;\">+</div>","response":null,"screen":"fixation","trial_type":"html-keyboard-response","trial_index":200,"time_elapsed":300671,"internal_node_id":"0.0-6.0-2.0-0.22","screen_height":616,"screen_width":1280,"browser":"chrome","browser_version":"103.0.0","mobile":false,"os":"Windows 10","vsync_rate":60.47,"participant_id":"S00","trial_duration":877},{"rt":651,"stimulus":"stimuli/Delboeuf_str-1.0_diff0.6.png","response":"arrowleft","screen":"Trial","block":"Delboeuf","correct_response":"arrowleft","trial_type":"image-keyboard-response","trial_index":201,"time_elapsed":301323,"internal_node_id":"0.0-6.0-2.0-1.22","screen_height":616,"screen_width":1280,"browser":"chrome","browser_version":"103.0.0","mobile":false,"os":"Windows 10","vsync_rate":60.47,"participant_id":"S00","prestimulus_duration":887,"correct":true,"type":"Delboeuf","illusion_strength":-1,"illusion_difference":0.6000000000000001,"block_number":3,"trial_number":23},{"rt":null,"stimulus":"<div style=\"font-size:60px;\">+</div>","response":null,"screen":"fixation","trial_type":"html-keyboard-response","trial_index":202,"time_elapsed":301794,"internal_node_id":"0.0-6.0-2.0-0.23","screen_height":616,"screen_width":1280,"browser":"chrome","browser_version":"103.0.0","mobile":false,"os":"Windows 10","vsync_rate":60.47,"participant_id":"S00","trial_duration":458},{"rt":600,"stimulus":"stimuli/Delboeuf_str-0.2_diff1.0.png","response":"arrowleft","screen":"Trial","block":"Delboeuf","correct_response":"arrowleft","trial_type":"image-keyboard-response","trial_index":203,"time_elapsed":302395,"internal_node_id":"0.0-6.0-2.0-1.23","screen_height":616,"screen_width":1280,"browser":"chrome","browser_version":"103.0.0","mobile":false,"os":"Windows 10","vsync_rate":60.47,"participant_id":"S00