[{"success":true,"trial_type":"fullscreen","trial_index":0,"time_elapsed":2141,"internal_node_id":"0.0-0.0","screen_height":616,"screen_width":1280,"browser":"chrome","browser_version":"103.0.0","mobile":false,"os":"Windows 10","vsync_rate":61.26,"participant_id":"S00"},{"width":1280,"height":616,"webaudio":true,"browser":"chrome","browser_version":"103.0.0","mobile":false,"os":"Windows 10","fullscreen":true,"vsync_rate":61.26,"webcam":true,"microphone":true,"screen":"browser_info","trial_type":"browser-check","trial_index":1,"time_elapsed":3144,"internal_node_id":"0.0-1.0","screen_height":616,"screen_width":1280,"participant_id":"S00"},{"rt":4077,"response":{"Participant_ID":"S00"},"screen":"participant_info","version":"1.0","date":"12/07/2022","time":"17:05:05","trial_type":"survey-text","trial_index":2,"time_elapsed":7233,"internal_node_id":"0.0-2.0","screen_height":616,"screen_width":1280,"browser":"chrome","browser_version":"103.0.0","mobile":false,"os":"Windows 10","vsync_rate":61.26,"participant_id":"S00"},{"rt":3612,"stimulus":"<p><b>The Illusion Game</b></p><p>In this reaction-time game, you will need to be <b>as fast as possible</b> and make correct responses by resisting different visual illusions.</p><p>We will show you examples of each illusion before each block.</p><p>Remember, your goal is to be as <b>fast</b> and <b>accurate</b> as possible. Good luck!</p>","response":0,"screen":"general_instructions","trial_type":"html-button-response","trial_index":3,"time_elapsed":10849,"internal_node_id":"0.0-3.0","screen_height":616,"screen_width":1280,"browser":"chrome","browser_version":"103.0.0","mobile":false,"os":"Windows 10","vsync_rate":61.26,"participant_id":"S00"},{"success":true,"timeout":false,"failed_images":[],"failed_audio":[],"failed_video":[],"trial_type":"preload","trial_index":4,"time_elapsed":10854,"internal_node_id":"0.0-4.0-0.0","screen_height":616,"screen_width":1280,"browser":"chrome","browser_version":"103.0.0","mobile":false,"os":"Windows 10","vsync_rate":61.26,"participant_id":"S00"},{"rt":25034,"stimulus":"<p><b>Part 1</b></p><p>In this part, two parallel red lines will appear, but they are partially hidden by a grey rectangle.</p><p>Your task is to tell if the <b>red line to the right</b> of the rectangle is above or below the line to the left. You need to answer as fast as you can, without making errors.</p><p>Press <b>the UP or the DOWN arrow</b> to indicate whether the <b>right red line is actually above or below the left red line.</b></p><div style='float: center'><img src='utils/stimuli_demo/Poggendorff_Demo.png' height='300'></img><p><img src='utils/answer/answer_updown_keyboard.PNG' height='150'></img></p><p class='small'>In this example, the correct answer is the <b>UP arrow</b>.</p></div><p>Are you ready? <b>Press ENTER to start</b></p>","response":"enter","trial_type":"html-keyboard-response","trial_index":5,"time_elapsed":35891,"internal_node_id":"0.0-4.0-1.0","screen_height":616,"screen_width":1280,"browser":"chrome","browser_version":"103.0.0","mobile":false,"os":"Windows 10","vsync_rate":61.26,"participant_id":"S00"},{"rt":null,"stimulus":"<div style=\"font-size:60px;\">+</div>","response":null,"screen":"fixation","trial_type":"html-keyboard-response","trial_index":6,"time_elapsed":37164,"internal_node_id":"0.0-4.0-2.0-0.0","screen_height":616,"screen_width":1280,"browser":"chrome","browser_version":"103.0.0","mobile":false,"os":"Windows 10","vsync_rate":61.26,"participant_id":"S00","trial_duration":744},{"rt":818,"stimulus":"stimuli/Poggendorff_str12.0_diff0.17.png","response":"arrowup","screen":"Trial","block":"Poggendorff","correct_response":"arrowup","trial_type":"image-keyboard-response","trial_index":7,"time_elapsed":37986,"internal_node_id":"0.0-4.0-2.0-1.0","screen_height":616,"screen_width":1280,"browser":"chrome","browser_version":"103.0.0","mobile":false,"os":"Windows 10","vsync_rate":61.26,"participant_id":"S00","prestimulus_duration":1273,"correct":true,"type":"Poggendorff","illusion_strength":12,"illusion_difference":0.16874999999999998,"block_number":1,"trial_number":1},{"rt":null,"stimulus":"<div style=\"font-size:60px;\">+</div>","response":null,"screen":"fixation","trial_type":"html-keyboard-response","trial_index":8,"time_elapsed":38353,"internal_node_id":"0.0-4.0-2.0-0.1","screen_height":616,"screen_width":1280,"browser":"chrome","browser_version":"103.0.0","mobile":false,"os":"Windows 10","vsync_rate":61.26,"participant_id":"S00","trial_duration":359},{"rt":758,"stimulus":"stimuli/Poggendorff_str-12.0_diff-0.4.png","response":"arrowup","screen":"Trial","block":"Poggendorff","correct_response":"arrowdown","trial_type":"image-keyboard-response","trial_index":9,"time_elapsed":39113,"internal_node_id":"0.0-4.0-2.0-1.1","screen_height":616,"screen_width":1280,"browser":"chrome","browser_version":"103.0.0","mobile":false,"os":"Windows 10","vsync_rate":61.26,"participant_id":"S00","prestimulus_duration":367,"correct":false,"type":"Poggendorff","illusion_strength":-12,"illusion_difference":-0.4,"block_number":1,"trial_number":2},{"rt":null,"stimulus":"<div style=\"font-size:60px;\">+</div>","response":null,"screen":"fixation","trial_type":"html-keyboard-response","trial_index":10,"time_elapsed":39904,"internal_node_id":"0.0-4.0-2.0-0.2","screen_height":616,"screen_width":1280,"browser":"chrome","browser_version":"103.0.0","mobile":false,"os":"Windows 10","vsync_rate":61.26,"participant_id":"S00","trial_duration":784},{"rt":756,"stimulus":"stimuli/Poggendorff_str-36.0_diff-0.4.png","response":"arrowup","screen":"Trial","block":"Poggendorff","correct_response":"arrowdown","trial_type":"image-keyboard-response","trial_index":11,"time_elapsed":40661,"internal_node_id":"0.0-4.0-2.0-1.2","screen_height":616,"screen_width":1280,"browser":"chrome","browser_version":"103.0.0","mobile":false,"os":"Windows 10","vsync_rate":61.26,"participant_id":"S00","prestimulus_duration":791,"correct":false,"type":"Poggendorff","illusion_strength":-36,"illusion_difference":-0.4,"block_number":1,"trial_number":3},{"rt":null,"stimulus":"<div style=\"font-size:60px;\">+</div>","response":null,"screen":"fixation","trial_type":"html-keyboard-response","trial_index":12,"time_elapsed":41087,"internal_node_id":"0.0-4.0-2.0-0.3","screen_height":616,"screen_width":1280,"browser":"chrome","browser_version":"103.0.0","mobile":false,"os":"Windows 10","vsync_rate":61.26,"participant_id":"S00","trial_duration":416},{"rt":788,"stimulus":"stimuli/Poggendorff_str36.0_diff-0.4.png","response":"arrowdown","screen":"Trial","block":"Poggendorff","correct_response":"arrowdown","trial_type":"image-keyboard-response","trial_index":13,"time_elapsed":41877,"internal_node_id":"0.0-4.0-2.0-1.3","screen_height":616,"screen_width":1280,"browser":"chrome","browser_version":"103.0.0","mobile":false,"os":"Windows 10","vsync_rate":61.26,"participant_id":"S00","prestimulus_duration":426,"correct":true,"type":"Poggendorff","illusion_strength":36,"illusion_difference":-0.4,"block_number":1,"trial_number":4},{"rt":null,"stimulus":"<div style=\"font-size:60px;\">+</div>","response":null,"screen":"fixation","trial_type":"html-keyboard-response","trial_index":14,"time_elapsed":42832,"internal_node_id":"0.0-4.0-2.0-0.4","screen_height":616,"screen_width":1280,"browser":"chrome","browser_version":"103.0.0","mobile":false,"os":"Windows 10","vsync_rate":61.26,"participant_id":"S00","trial_duration":939},{"rt":998,"stimulus":"stimuli/Poggendorff_str-12.0_diff0.03.png","response":"arrowdown","screen":"Trial","block":"Poggendorff","correct_response":"arrowup","trial_type":"image-keyboard-response","trial_index":15,"time_elapsed":43832,"internal_node_id":"0.0-4.0-2.0-1.4","screen_height":616,"screen_width":1280,"browser":"chrome","browser_version":"103.0.0","mobile":false,"os":"Windows 10","vsync_rate":61.26,"participant_id":"S00","prestimulus_duration":955,"correct":false,"type":"Poggendorff","illusion_strength":-12,"illusion_difference":0.03,"block_number":1,"trial_number":5},{"rt":null,"stimulus":"<div style=\"font-size:60px;\">+</div>","response":null,"screen":"fixation","trial_type":"html-keyboard-response","trial_index":16,"time_elapsed":44689,"internal_node_id":"0.0-4.0-2.0-0.5","screen_height":616,"screen_width":1280,"browser":"chrome","browser_version":"103.0.0","mobile":false,"os":"Windows 10","vsync_rate":61.26,"participant_id":"S00","trial_duration":852},{"rt":748,"stimulus":"stimuli/Poggendorff_str-36.0_diff0.17.png","response":"arrowdown","screen":"Trial","block":"Poggendorff","correct_response":"arrowup","trial_type":"image-keyboard-response","trial_index":17,"time_elapsed":45438,"internal_node_id":"0.0-4.0-2.0-1.5","screen_height":616,"screen_width":1280,"browser":"chrome","browser_version":"103.0.0","mobile":false,"os":"Windows 10","vsync_rate":61.26,"participant_id":"S00","prestimulus_duration":857,"correct":false,"type":"Poggendorff","illusion_strength":-36,"illusion_difference":0.16874999999999998,"block_number":1,"trial_number":6},{"rt":null,"stimulus":"<div style=\"font-size:60px;\">+</div>","response":null,"screen":"fixation","trial_type":"html-keyboard-response","trial_index":18,"time_elapsed":46060,"internal_node_id":"0.0-4.0-2.0-0.6","screen_height":616,"screen_width":1280,"browser":"chrome","browser_version":"103.0.0","mobile":false,"os":"Windows 10","vsync_rate":61.26,"participant_id":"S00","trial_duration":610},{"rt":677,"stimulus":"stimuli/Poggendorff_str-36.0_diff0.03.png","response":"arrowdown","screen":"Trial","block":"Poggendorff","correct_response":"arrowup","trial_type":"image-keyboard-response","trial_index":19,"time_elapsed":46740,"internal_node_id":"0.0-4.0-2.0-1.6","screen_height":616,"screen_width":1280,"browser":"chrome","browser_version":"103.0.0","mobile":false,"os":"Windows 10","vsync_rate":61.26,"participant_id":"S00","prestimulus_duration":622,"correct":false,"type":"Poggendorff","illusion_strength":-36,"illusion_difference":0.03,"block_number":1,"trial_number":7},{"rt":null,"stimulus":"<div style=\"font-size:60px;\">+</div>","response":null,"screen":"fixation","trial_type":"html-keyboard-response","trial_index":20,"time_elapsed":47256,"internal_node_id":"0.0-4.0-2.0-0.7","screen_height":616,"screen_width":1280,"browser":"chrome","browser_version":"103.0.0","mobile":false,"os":"Windows 10","vsync_rate":61.26,"participant_id":"S00","trial_duration":510},{"rt":774,"stimulus":"stimuli/Poggendorff_str-12.0_diff-0.03.png","response":"arrowup","screen":"Trial","block":"Poggendorff","correct_response":"arrowdown","trial_type":"image-keyboard-response","trial_index":21,"time_elapsed":48032,"internal_node_id":"0.0-4.0-2.0-1.7","screen_height":616,"screen_width":1280,"browser":"chrome","browser_version":"103.0.0","mobile":false,"os":"Windows 10","vsync_rate":61.26,"participant_id":"S00","prestimulus_duration":516,"correct":false,"type":"Poggendorff","illusion_strength":-12,"illusion_difference":-0.03,"block_number":1,"trial_number":8},{"rt":null,"stimulus":"<div style=\"font-size:60px;\">+</div>","response":null,"screen":"fixation","trial_type":"html-keyboard-response","trial_index":22,"time_elapsed":48910,"internal_node_id":"0.0-4.0-2.0-0.8","screen_height":616,"screen_width":1280,"browser":"chrome","browser_version":"103.0.0","mobile":false,"os":"Windows 10","vsync_rate":61.26,"participant_id":"S00","trial_duration":863},{"rt":744,"stimulus":"stimuli/Poggendorff_str12.0_diff0.4.png","response":"arrowup","screen":"Trial","block":"Poggendorff","correct_response":"arrowup","trial_type":"image-keyboard-response","trial_index":23,"time_elapsed":49656,"internal_node_id":"0.0-4.0-2.0-1.8","screen_height":616,"screen_width":1280,"browser":"chrome","browser_version":"103.0.0","mobile":false,"os":"Windows 10","vsync_rate":61.26,"participant_id":"S00","prestimulus_duration":878,"correct":true,"type":"Poggendorff","illusion_strength":12,"illusion_difference":0.4,"block_number":1,"trial_number":9},{"rt":null,"stimulus":"<div style=\"font-size:60px;\">+</div>","response":null,"screen":"fixation","trial_type":"html-keyboard-response","trial_index":24,"time_elapsed":50254,"internal_node_id":"0.0-4.0-2.0-0.9","screen_height":616,"screen_width":1280,"browser":"chrome","browser_version":"103.0.0","mobile":false,"os":"Windows 10","vsync_rate":61.26,"participant_id":"S00","trial_duration":584},{"rt":806,"stimulus":"stimuli/Poggendorff_str-12.0_diff0.17.png","response":"arrowdown","screen":"Trial","block":"Poggendorff","correct_response":"arrowup","trial_type":"image-keyboard-response","trial_index":25,"time_elapsed":51062,"internal_node_id":"0.0-4.0-2.0-1.9","screen_height":616,"screen_width":1280,"browser":"chrome","browser_version":"103.0.0","mobile":false,"os":"Windows 10","vsync_rate":61.26,"participant_id":"S00","prestimulus_duration":598,"correct":false,"type":"Poggendorff","illusion_strength":-12,"illusion_difference":0.16874999999999998,"block_number":1,"trial_number":10},{"rt":null,"stimulus":"<div style=\"font-size:60px;\">+</div>","response":null,"screen":"fixation","trial_type":"html-keyboard-response","trial_index":26,"time_elapsed":51672,"internal_node_id":"0.0-4.0-2.0-0.10","screen_height":616,"screen_width":1280,"browser":"chrome","browser_version":"103.0.0","mobile":false,"os":"Windows 10","vsync_rate":61.26,"participant_id":"S00","trial_duration":607},{"rt":714,"stimulus":"stimuli/Poggendorff_str-12.0_diff0.4.png","response":"arrowdown","screen":"Trial","block":"Poggendorff","correct_response":"arrowup","trial_type":"image-keyboard-response","trial_index":27,"time_elapsed":52388,"internal_node_id":"0.0-4.0-2.0-1.10","screen_height":616,"screen_width":1280,"browser":"chrome","browser_version":"103.0.0","mobile":false,"os":"Windows 10","vsync_rate":61.26,"participant_id":"S00","prestimulus_duration":610,"correct":false,"type":"Poggendorff","illusion_strength":-12,"illusion_difference":0.4,"block_number":1,"trial_number":11},{"rt":null,"stimulus":"<div style=\"font-size:60px;\">+</div>","response":null,"screen":"fixation","trial_type":"html-keyboard-response","trial_index":28,"time_elapsed":52659,"internal_node_id":"0.0-4.0-2.0-0.11","screen_height":616,"screen_width":1280,"browser":"chrome","browser_version":"103.0.0","mobile":false,"os":"Windows 10","vsync_rate":61.26,"participant_id":"S00","trial_duration":264},{"rt":741,"stimulus":"stimuli/Poggendorff_str-60.0_diff0.4.png","response":"arrowdown","screen":"Trial","block":"Poggendorff","correct_response":"arrowup","trial_type":"image-keyboard-response","trial_index":29,"time_elapsed":53401,"internal_node_id":"0.0-4.0-2.0-1.11","screen_height":616,"screen_width":1280,"browser":"chrome","browser_version":"103.0.0","mobile":false,"os":"Windows 10","vsync_rate":61.26,"participant_id":"S00","prestimulus_duration":271,"correct":false,"type":"Poggendorff","illusion_strength":-60,"illusion_difference":0.4,"block_number":1,"trial_number":12},{"rt":null,"stimulus":"<div style=\"font-size:60px;\">+</div>","response":null,"screen":"fixation","trial_type":"html-keyboard-response","trial_index":30,"time_elapsed":54409,"internal_node_id":"0.0-4.0-2.0-0.12","screen_height":616,"screen_width":1280,"browser":"chrome","browser_version":"103.0.0","mobile":false,"os":"Windows 10","vsync_rate":61.26,"participant_id":"S00","trial_duration":995},{"rt":818,"stimulus":"stimuli/Poggendorff_str-60.0_diff-0.03.png","response":"arrowdown","screen":"Trial","block":"Poggendorff","correct_response":"arrowdown","trial_type":"image-keyboard-response","trial_index":31,"time_elapsed":55229,"internal_node_id":"0.0-4.0-2.0-1.12","screen_height":616,"screen_width":1280,"browser":"chrome","browser_version":"103.0.0","mobile":false,"os":"Windows 10","vsync_rate":61.26,"participant_id":"S00","prestimulus_duration":1008,"correct":true,"type":"Poggendorff","illusion_strength":-60,"illusion_difference":-0.03,"block_number":1,"trial_number":13},{"rt":null,"stimulus":"<div style=\"font-size:60px;\">+</div>","response":null,"screen":"fixation","trial_type":"html-keyboard-response","trial_index":32,"time_elapsed":55814,"internal_node_id":"0.0-4.0-2.0-0.13","screen_height":616,"screen_width":1280,"browser":"chrome","browser_version":"103.0.0","mobile":false,"os":"Windows 10","vsync_rate":61.26,"participant_id":"S00","trial_duration":573},{"rt":798,"stimulus":"stimuli/Poggendorff_str60.0_diff0.4.png","response":"arrowdown","screen":"Trial","block":"Poggendorff","correct_response":"arrowup","trial_type":"image-keyboard-response","trial_index":33,"time_elapsed":56614,"internal_node_id":"0.0-4.0-2.0-1.13","screen_height":616,"screen_width":1280,"browser":"chrome","browser_version":"103.0.0","mobile":false,"os":"Windows 10","vsync_rate":61.26,"participant_id":"S00","prestimulus_duration":585,"correct":false,"type":"Poggendorff","illusion_strength":60,"illusion_difference":0.4,"block_number":1,"trial_number":14},{"rt":null,"stimulus":"<div style=\"font-size:60px;\">+</div>","response":null,"screen":"fixation","trial_type":"html-keyboard-response","trial_index":34,"time_elapsed":57425,"internal_node_id":"0.0-4.0-2.0-0.14","screen_height":616,"screen_width":1280,"browser":"chrome","browser_version":"103.0.0","mobile":false,"os":"Windows 10","vsync_rate":61.26,"participant_id":"S00","trial_duration":808},{"rt":861,"stimulus":"stimuli/Poggendorff_str36.0_diff-0.03.png","response":"arrowup","screen":"Trial","block":"Poggendorff","correct_response":"arrowdown","trial_type":"image-keyboard-response","trial_index":35,"time_elapsed":58288,"internal_node_id":"0.0-4.0-2.0-1.14","screen_height":616,"screen_width":1280,"browser":"chrome","browser_version":"103.0.0","mobile":false,"os":"Windows 10","vsync_rate":61.26,"participant_id":"S00","prestimulus_duration":811,"correct":false,"type":"Poggendorff","illusion_strength":36,"illusion_difference":-0.03,"block_number":1,"trial_number":15},{"rt":null,"stimulus":"<div style=\"font-size:60px;\">+</div>","response":null,"screen":"fixation","trial_type":"html-keyboard-response","trial_index":36,"time_elapsed":58664,"internal_node_id":"0.0-4.0-2.0-0.15","screen_height":616,"screen_width":1280,"browser":"chrome","browser_version":"103.0.0","mobile":false,"os":"Windows 10","vsync_rate":61.26,"participant_id":"S00","trial_duration":369},{"rt":922,"stimulus":"stimuli/Poggendorff_str12.0_diff-0.03.png","response":"arrowup","screen":"Trial","block":"Poggendorff","correct_response":"arrowdown","trial_type":"image-keyboard-response","trial_index":37,"time_elapsed":59587,"internal_node_id":"0.0-4.0-2.0-1.15","screen_height":616,"screen_width":1280,"browser":"chrome","browser_version":"103.0.0","mobile":false,"os":"Windows 10","vsync_rate":61.26,"participant_id":"S00","prestimulus_duration":376,"correct":false,"type":"Poggendorff","illusion_strength":12,"illusion_difference":-0.03,"block_number":1,"trial_number":16},{"rt":null,"stimulus":"<div style=\"font-size:60px;\">+</div>","response":null,"screen":"fixation","trial_type":"html-keyboard-response","trial_index":38,"time_elapsed":60286,"internal_node_id":"0.0-4.0-2.0-0.16","screen_height":616,"screen_width":1280,"browser":"chrome","browser_version":"103.0.0","mobile":false,"os":"Windows 10","vsync_rate":61.26,"participant_id":"S00","trial_duration":685},{"rt":984,"stimulus":"stimuli/Poggendorff_str-60.0_diff0.17.png","response":"arrowdown","screen":"Trial","block":"Poggendorff","correct_response":"arrowup","trial_type":"image-keyboard-response","trial_index":39,"time_elapsed":61271,"internal_node_id":"0.0-4.0-2.0-1.16","screen_height":616,"screen_width":1280,"browser":"chrome","browser_version":"103.0.0","mobile":false,"os":"Windows 10","vsync_rate":61.26,"participant_id":"S00","prestimulus_duration":699,"correct":false,"type":"Poggendorff","illusion_strength":-60,"illusion_difference":0.16874999999999998,"block_number":1,"trial_number":17},{"rt":null,"stimulus":"<div style=\"font-size:60px;\">+</div>","response":null,"screen":"fixation","trial_type":"html-keyboard-response","trial_index":40,"time_elapsed":61686,"internal_node_id":"0.0-4.0-2.0-0.17","screen_height":616,"screen_width":1280,"browser":"chrome","browser_version":"103.0.0","mobile":false,"os":"Windows 10","vsync_rate":61.26,"participant_id":"S00","trial_duration":400},{"rt":767,"stimulus":"stimuli/Poggendorff_str36.0_diff0.17.png","response":"arrowup","screen":"Trial","block":"Poggendorff","correct_response":"arrowup","trial_type":"image-keyboard-response","trial_index":41,"time_elapsed":62454,"internal_node_id":"0.0-4.0-2.0-1.17","screen_height":616,"screen_width":1280,"browser":"chrome","browser_version":"103.0.0","mobile":false,"os":"Windows 10","vsync_rate":61.26,"participant_id":"S00","prestimulus_duration":415,"correct":true,"type":"Poggendorff","illusion_strength":36,"illusion_difference":0.16874999999999998,"block_number":1,"trial_number":18},{"rt":null,"stimulus":"<div style=\"font-size:60px;\">+</div>","response":null,"screen":"fixation","trial_type":"html-keyboard-response","trial_index":42,"time_elapsed":63446,"internal_node_id":"0.0-4.0-2.0-0.18","screen_height":616,"screen_width":1280,"browser":"chrome","browser_version":"103.0.0","mobile":false,"os":"Windows 10","vsync_rate":61.26,"participant_id":"S00","trial_duration":988},{"rt":953,"stimulus":"stimuli/Poggendorff_str60.0_diff0.17.png","response":"arrowdown","screen":"Trial","block":"Poggendorff","correct_response":"arrowup","trial_type":"image-keyboard-response","trial_index":43,"time_elapsed":64401,"internal_node_id":"0.0-4.0-2.0-1.18","screen_height":616,"screen_width":1280,"browser":"chrome","browser_version":"103.0.0","mobile":false,"os":"Windows 10","vsync_rate":61.26,"participant_id":"S00","prestimulus_duration":992,"correct":false,"type":"Poggendorff","illusion_strength":60,"illusion_difference":0.16874999999999998,"block_number":1,"trial_number":19},{"rt":null,"stimulus":"<div style=\"font-size:60px;\">+</div>","response":null,"screen":"fixation","trial_type":"html-keyboard-response","trial_index":44,"time_elapsed":65200,"internal_node_id":"0.0-4.0-2.0-0.19","screen_height":616,"screen_width":1280,"browser":"chrome","browser_version":"103.0.0","mobile":false,"os":"Windows 10","vsync_rate":61.26,"participant_id":"S00","trial_duration":787},{"rt":824,"stimulus":"stimuli/Poggendorff_str-60.0_diff-0.17.png","response":"arrowdown","screen":"Trial","block":"Poggendorff","correct_response":"arrowdown","trial_type":"image-keyboard-response","trial_index":45,"time_elapsed":66026,"internal_node_id":"0.0-4.0-2.0-1.19","screen_height":616,"screen_width":1280,"browser":"chrome","browser_version":"103.0.0","mobile":false,"os":"Windows 10","vsync_rate":61.26,"participant_id":"S00","prestimulus_duration":799,"correct":true,"type":"Poggendorff","illusion_strength":-60,"illusion_difference":-0.16874999999999998,"block_number":1,"trial_number":20},{"rt":null,"stimulus":"<div style=\"font-size:60px;\">+</div>","response":null,"screen":"fixation","trial_type":"html-keyboard-response","trial_index":46,"time_elapsed":66716,"internal_node_id":"0.0-4.0-2.0-0.20","screen_height":616,"screen_width":1280,"browser":"chrome","browser_version":"103.0.0","mobile":false,"os":"Windows 10","vsync_rate":61.26,"participant_id":"S00","trial_duration":687},{"rt":802,"stimulus":"stimuli/Poggendorff_str-12.0_diff-0.17.png","response":"arrowup","screen":"Trial","block":"Poggendorff","correct_response":"arrowdown","trial_type":"image-keyboard-response","trial_index":47,"time_elapsed":67520,"internal_node_id":"0.0-4.0-2.0-1.20","screen_height":616,"screen_width":1280,"browser":"chrome","browser_version":"103.0.0","mobile":false,"os":"Windows 10","vsync_rate":61.26,"participant_id":"S00","prestimulus_duration":690,"correct":false,"type":"Poggendorff","illusion_strength":-12,"illusion_difference":-0.16874999999999998,"block_number":1,"trial_number":21},{"rt":null,"stimulus":"<div style=\"font-size:60px;\">+</div>","response":null,"screen":"fixation","trial_type":"html-keyboard-response","trial_index":48,"time_elapsed":67885,"internal_node_id":"0.0-4.0-2.0-0.21","screen_height":616,"screen_width":1280,"browser":"chrome","browser_version":"103.0.0","mobile":false,"os":"Windows 10","vsync_rate":61.26,"participant_id":"S00","trial_duration":361},{"rt":885,"stimulus":"stimuli/Poggendorff_str12.0_diff-0.17.png","response":"arrowdown","screen":"Trial","block":"Poggendorff","correct_response":"arrowdown","trial_type":"image-keyboard-response","trial_index":49,"time_elapsed":68772,"internal_node_id":"0.0-4.0-2.0-1.21","screen_height":616,"screen_width":1280,"browser":"chrome","browser_version":"103.0.0","mobile":false,"os":"Windows 10","vsync_rate":61.26,"participant_id":"S00","prestimulus_duration":365,"correct":true,"type":"Poggendorff","illusion_strength":12,"illusion_difference":-0.16874999999999998,"block_number":1,"trial_number":22},{"rt":null,"stimulus":"<div style=\"font-size:60px;\">+</div>","response":null,"screen":"fixation","trial_type":"html-keyboard-response","trial_index":50,"time_elapsed":69050,"internal_node_id":"0.0-4.0-2.0-0.22","screen_height":616,"screen_width":1280,"browser":"chrome","browser_version":"103.0.0","mobile":false,"os":"Windows 10","vsync_rate":61.26,"participant_id":"S00","trial_duration":270},{"rt":1010,"stimulus":"stimuli/Poggendorff_str-60.0_diff0.03.png","response":"arrowdown","screen":"Trial","block":"Poggendorff","correct_response":"arrowup","trial_type":"image-keyboard-response","trial_index":51,"time_elapsed":70060,"internal_node_id":"0.0-4.0-2.0-1.22","screen_height":616,"screen_width":1280,"browser":"chrome","browser_version":"103.0.0","mobile":false,"os":"Windows 10","vsync_rate":61.26,"participant_id":"S00","prestimulus_duration":278,"correct":false,"type":"Poggendorff","illusion_strength":-60,"illusion_difference":0.03,"block_number":1,"trial_number":23},{"rt":null,"stimulus":"<div style=\"font-size:60px;\">+</div>","response":null,"screen":"fixation","trial_type":"html-keyboard-response","trial_index":52,"time_elapsed":70462,"internal_node_id":"0.0-4.0-2.0-0.23","screen_height":616,"screen_width":1280,"browser":"chrome","browser_version":"103.0.0","mobile":false,"os":"Windows 10","vsync_rate":61.26,"participant_id":"S00","trial_duration":392},{"rt":777,"stimulus":"stimuli/Poggendorff_str60.0_diff0.03.png","response":"arrowdown","screen":"Trial","block":"Poggendorff","correct_response":"arrowup","trial_type":"image-keyboard-response","trial_index":53,"time_elapsed":71240,"internal_node_id":"0.0-4.0-2.0-1.23","screen_height":616,"screen_width":1280,"browser":"chrome","browser_version":"103.0.0","mobile":false,"os":"Windows 10","vsync_rate":61.26,"participant_id":"S00","prestimulus_duration":402,"correct":false,"type":"Poggendorff","illusion_strength":60,"illusion_difference":0.03,"block_number":1,"trial_number":24},{"rt":null,"stimulus":"<div style=\"font-size:60px;\">+</div>","response":null,"screen":"fixation","trial_type":"html-keyboard-response","trial_index":54,"time_elapsed":71657,"internal_node_id":"0.0-4.0-2.0-0.24","screen_height":616,"screen_width":1280,"browser":"chrome","browser_version":"103.0.0","mobile":false,"os":"Windows 10","vsync_rate":61.26,"participant_id":"S00","trial_duration":412},{"rt":826,"stimulus":"stimuli/Poggendorff_str-36.0_diff0.4.png","response":"arrowdown","screen":"Trial","block":"Poggendorff","correct_response":"arrowup","trial_type":"image-keyboard-response","trial_index":55,"time_elapsed":72485,"internal_node_id":"0.0-4.0-2.0-1.24","screen_height":616,"screen_width":1280,"browser":"chrome","browser_version":"103.0.0","mobile":false,"os":"Windows 10","vsync_rate":61.26,"participant_id":"S00","prestimulus_duration":417,"correct":false,"type":"Poggendorff","illusion_strength":-36,"illusion_difference":0.4,"block_number":1,"trial_number":25},{"rt":null,"stimulus":"<div style=\"font-size:60px;\">+</div>","response":null,"screen":"fixation","trial_type":"html-keyboard-response","trial_index":56,"time_elapsed":73108,"internal_node_id":"0.0-4.0-2.0-0.25","screen_height":616,"screen_width":1280,"browser":"chrome","browser_version":"103.0.0","mobile":false,"os":"Windows 10","vsync_rate":61.26,"participant_id":"S00","trial_duration":616},{"rt":811,"stimulus":"stimuli/Poggendorff_str-36.0_diff-0.03.png","response":"arrowdown","screen":"Trial","block":"Poggendorff","correct_response":"arrowdown","trial_type":"image-keyboard-response","trial_index":57,"time_elapsed":73920,"internal_node_id":"0.0-4.0-2.0-1.25","screen_height":616,"screen_width":1280,"browser":"chrome","browser_version":"103.0.0","mobile":false,"os":"Windows 10","vsync_rate":61.26,"participant_id":"S00","prestimulus_duration":623,"correct":true,"type":"Poggendorff","illusion_strength":-36,"illusion_difference":-0.03,"block_number":1,"trial_number":26},{"rt":null,"stimulus":"<div style=\"font-size:60px;\">+</div>","response":null,"screen":"fixation","trial_type":"html-keyboard-response","trial_index":58,"time_elapsed":74747,"internal_node_id":"0.0-4.0-2.0-0.26","screen_height":616,"screen_width":1280,"browser":"chrome","browser_version":"103.0.0","mobile":false,"os":"Windows 10","vsync_rate":61.26,"participant_id":"S00","trial_duration":823},{"rt":1021,"stimulus":"stimuli/Poggendorff_str36.0_diff0.03.png","response":"arrowup","screen":"Trial","block":"Poggendorff","correct_response":"arrowup","trial_type":"image-keyboard-response","trial_index":59,"time_elapsed":75769,"internal_node_id":"0.0-4.0-2.0-1.26","screen_height":616,"screen_width":1280,"browser":"chrome","browser_version":"103.0.0","mobile":false,"os":"Windows 10","vsync_rate":61.26,"participant_id":"S00","prestimulus_duration":827,"correct":true,"type":"Poggendorff","illusion_strength":36,"illusion_difference":0.03,"block_number":1,"trial_number":27},{"rt":null,"stimulus":"<div style=\"font-size:60px;\">+</div>","response":null,"screen":"fixation","trial_type":"html-keyboard-response","trial_index":60,"time_elapsed":76592,"internal_node_id":"0.0-4.0-2.0-0.27","screen_height":616,"screen_width":1280,"browser":"chrome","browser_version":"103.0.0","mobile":false,"os":"Windows 10","vsync_rate":61.26,"participant_id":"S00","trial_duration":807},{"rt":951,"stimulus":"stimuli/Poggendorff_str12.0_diff-0.4.png","response":"arrowdown","screen":"Trial","block":"Poggendorff","correct_response":"arrowdown","trial_type":"image-keyboard-response","trial_index":61,"time_elapsed":77545,"internal_node_id":"0.0-4.0-2.0-1.27","screen_height":616,"screen_width":1280,"browser":"chrome","browser_version":"103.0.0","mobile":false,"os":"Windows 10","vsync_rate":61.26,"participant_id":"S00","prestimulus_duration":823,"correct":true,"type":"Poggendorff","illusion_strength":12,"illusion_difference":-0.4,"block_number":1,"trial_number":28},{"rt":null,"stimulus":"<div style=\"font-size:60px;\">+</div>","response":null,"screen":"fixation","trial_type":"html-keyboard-response","trial_index":62,"time_elapsed":78051,"internal_node_id":"0.0-4.0-2.0-0.28","screen_height":616,"screen_width":1280,"browser":"chrome","browser_version":"103.0.0","mobile":false,"os":"Windows 10","vsync_rate":61.26,"participant_id":"S00","trial_duration":500},{"rt":1462,"stimulus":"stimuli/Poggendorff_str60.0_diff-0.4.png","response":"arrowdown","screen":"Trial","block":"Poggendorff","correct_response":"arrowdown","trial_type":"image-keyboard-response","trial_index":63,"time_elapsed":79514,"internal_node_id":"0.0-4.0-2.0-1.28","screen_height":616,"screen_width":1280,"browser":"chrome","browser_version":"103.0.0","mobile":false,"os":"Windows 10","vsync_rate":61.26,"participant_id":"S00","prestimulus_duration":506,"correct":true,"type":"Poggendorff","illusion_strength":60,"illusion_difference":-0.4,"block_number":1,"trial_number":29},{"rt":null,"stimulus":"<div style=\"font-size:60px;\">+</div>","response":null,"screen":"fixation","trial_type":"html-keyboard-response","trial_index":64,"time_elapsed":80411,"internal_node_id":"0.0-4.0-2.0-0.29","screen_height":616,"screen_width":1280,"browser":"chrome","browser_version":"103.0.0","mobile":false,"os":"Windows 10","vsync_rate":61.26,"participant_id":"S00","trial_duration":887},{"rt":1131,"stimulus":"stimuli/Poggendorff_str36.0_diff-0.17.png","response":"arrowdown","screen":"Trial","block":"Poggendorff","correct_response":"arrowdown","trial_type":"image-keyboard-response","trial_index":65,"time_elapsed":81542,"internal_node_id":"0.0-4.0-2.0-1.29","screen_height":616,"screen_width":1280,"browser":"chrome","browser_version":"103.0.0","mobile":false,"os":"Windows 10","vsync_rate":61.26,"participant_id":"S00","prestimulus_duration":897,"correct":true,"type":"Poggendorff","illusion_strength":36,"illusion_difference":-0.16874999999999998,"block_number":1,"trial_number":30},{"rt":null,"stimulus":"<div style=\"font-size:60px;\">+</div>","response":null,"screen":"fixation","trial_type":"html-keyboard-response","trial_index":66,"time_elapsed":82117,"internal_node_id":"0.0-4.0-2.0-0.30","screen_height":616,"screen_width":1280,"browser":"chrome","browser_version":"103.0.0","mobile":false,"os":"Windows 10","vsync_rate":61.26,"participant_id":"S00","trial_duration":568},{"rt":848,"stimulus":"stimuli/Poggendorff_str-36.0_diff-0.17.png","response":"arrowup","screen":"Trial","block":"Poggendorff","correct_response":"arrowdown","trial_type":"image-keyboard-response","trial_index":67,"time_elapsed":82966,"internal_node_id":"0.0-4.0-2.0-1.30","screen_height":616,"screen_width":1280,"browser":"chrome","browser_version":"103.0.0","mobile":false,"os":"Windows 10","vsync_rate":61.26,"participant_id":"S00","prestimulus_duration":575,"correct":false,"type":"Poggendorff","illusion_strength":-36,"illusion_difference":-0.16874999999999998,"block_number":1,"trial_number":31},{"rt":null,"stimulus":"<div style=\"font-size:60px;\">+</div>","response":null,"screen":"fixation","trial_type":"html-keyboard-response","trial_index":68,"time_elapsed":83966,"internal_node_id":"0.0-4.0-2.0-0.31","screen_height":616,"screen_width":1280,"browser":"chrome","browser_version":"103.0.0","mobile":false,"os":"Windows 10","vsync_rate":61.26,"participant_id":"S00","trial_duration":995},{"rt":768,"stimulus":"stimuli/Poggendorff_str36.0_diff0.4.png","response":"arrowup","screen":"Trial","block":"Poggendorff","correct_response":"arrowup","trial_type":"image-keyboard-response","trial_index":69,"time_elapsed":84735,"internal_node_id":"0.0-4.0-2.0-1.31","screen_height":616,"screen_width":1280,"browser":"chrome","browser_version":"103.0.0","mobile":false,"os":"Windows 10","vsync_rate":61.26,"participant_id":"S00","prestimulus_duration":1000,"correct":true,"type":"Poggendorff","illusion_strength":36,"illusion_difference":0.4,"block_number":1,"trial_number":32},{"rt":null,"stimulus":"<div style=\"font-size:60px;\">+</div>","response":null,"screen":"fixation","trial_type":"html-keyboard-response","trial_index":70,"time_elapsed":85157,"internal_node_id":"0.0-4.0-2.0-0.32","screen_height":616,"screen_width":1280,"browser":"chrome","browser_version":"103.0.0","mobile":false,"os":"Windows 10","vsync_rate":61.26,"participant_id":"S00","trial_duration":413},{"rt":793,"stimulus":"stimuli/Poggendorff_str-60.0_diff-0.4.png","response":"arrowdown","screen":"Trial","block":"Poggendorff","correct_response":"arrowdown","trial_type":"image-keyboard-response","trial_index":71,"time_elapsed":85951,"internal_node_id":"0.0-4.0-2.0-1.32","screen_height":616,"screen_width":1280,"browser":"chrome","browser_version":"103.0.0","mobile":false,"os":"Windows 10","vsync_rate":61.26,"participant_id":"S00","prestimulus_duration":422,"correct":true,"type":"Poggendorff","illusion_strength":-60,"illusion_difference":-0.4,"block_number":1,"trial_number":33},{"rt":null,"stimulus":"<div style=\"font-size:60px;\">+</div>","response":null,"screen":"fixation","trial_type":"html-keyboard-response","trial_index":72,"time_elapsed":86855,"internal_node_id":"0.0-4.0-2.0-0.33","screen_height":616,"screen_width":1280,"browser":"chrome","browser_version":"103.0.0","mobile":false,"os":"Windows 10","vsync_rate":61.26,"participant_id":"S00","trial_duration":898},{"rt":951,"stimulus":"stimuli/Poggendorff_str60.0_diff-0.03.png","response":"arrowdown","screen":"Trial","block":"Poggendorff","correct_response":"arrowdown","trial_type":"image-keyboard-response","trial_index":73,"time_elapsed":87808,"internal_node_id":"0.0-4.0-2.0-1.33","screen_height":616,"screen_width":1280,"browser":"chrome","browser_version":"103.0.0","mobile":false,"os":"Windows 10","vsync_rate":61.26,"participant_id":"S00","prestimulus_duration":904,"correct":true,"type":"Poggendorff","illusion_strength":60,"illusion_difference":-0.03,"block_number":1,"trial_number":34},{"rt":null,"stimulus":"<div style=\"font-size:60px;\">+</div>","response":null,"screen":"fixation","trial_type":"html-keyboard-response","trial_index":74,"time_elapsed":88155,"internal_node_id":"0.0-4.0-2.0-0.34","screen_height":616,"screen_width":1280,"browser":"chrome","browser_version":"103.0.0","mobile":false,"os":"Windows 10","vsync_rate":61.26,"participant_id":"S00","trial_duration":342},{"rt":880,"stimulus":"stimuli/Poggendorff_str60.0_diff-0.17.png","response":"arrowdown","screen":"Trial","block":"Poggendorff","correct_response":"arrowdown","trial_type":"image-keyboard-response","trial_index":75,"time_elapsed":89035,"internal_node_id":"0.0-4.0-2.0-1.34","screen_height":616,"screen_width":1280,"browser":"chrome","browser_version":"103.0.0","mobile":false,"os":"Windows 10","vsync_rate":61.26,"participant_id":"S00","prestimulus_duration":347,"correct":true,"type":"Poggendorff","illusion_strength":60,"illusion_difference":-0.16874999999999998,"block_number":1,"trial_number":35},{"rt":null,"stimulus":"<div style=\"font-size:60px;\">+</div>","response":null,"screen":"fixation","trial_type":"html-keyboard-response","trial_index":76,"time_elapsed":89740,"internal_node_id":"0.0-4.0-2.0-0.35","screen_height":616,"screen_width":1280,"browser":"chrome","browser_version":"103.0.0","mobile":false,"os":"Windows 10","vsync_rate":61.26,"participant_id":"S00","trial_duration":695},{"rt":911,"stimulus":"stimuli/Poggendorff_str12.0_diff0.03.png","response":"arrowup","screen":"Trial","block":"Poggendorff","correct_response":"arrowup","trial_type":"image-keyboard-response","trial_index":77,"time_elapsed":90652,"internal_node_id":"0.0-4.0-2.0-1.35","screen_height":616,"screen_width":1280,"browser":"chrome","browser_version":"103.0.0","mobile":false,"os":"Windows 10","vsync_rate":61.26,"participant_id":"S00","prestimulus_duration":705,"correct":true,"type":"Poggendorff","illusion_strength":12,"illusion_difference":0.03,"block_number":1,"trial_number":36},{"rt":5043,"stimulus":"<p>Your score for this illusion is <p style=\"color: black; font-size: 48px; font-weight: bold;\">3091</p><hr><hr><p>Can you do better in the next illusion?</p>","response":0,"screen":"block_results","trial_type":"html-button-response","trial_index":78,"time_elapsed":95703,"internal_node_id":"0.0-4.0-3.0","screen_height":616,"screen_width":1280,"browser":"chrome","browser_version":"103.0.0","mobile":false,"os":"Windows 10","vsync_rate":61.26,"participant_id":"S00"},{"success":true,"timeout":false,"failed_images":[],"failed_audio":[],"failed_video":[],"trial_type":"preload","trial_index":79,"time_elapsed":95709,"internal_node_id":"0.0-5.0-0.0","screen_height":616,"screen_width":1280,"browser":"chrome","browser_version":"103.0.0","mobile":false,"os":"Windows 10","vsync_rate":61.26,"participant_id":"S00"},{"rt":7610,"stimulus":"<p><b>Part 2</b></p><p>In this part, two horizontal red lines will appear one above the other.</p><p>Your task is to select which <b>line is longer</b> in size as fast as you can, without making errors.</p><p>Don't get distracted by the surrounding black lines!</p><p>Press <b>the UP or the DOWN arrow</b> to indicate where is the longest <b>red line.</b></p><div style='float: center'><img src='utils/stimuli_demo/Ponzo_Demo.png' height='300'></img><p><img src='utils/answer/answer_updown_keyboard.PNG' height='150'></img></p><p class='small'>In this example, the correct answer is the <b>UP arrow</b>.</p></div><p>Are you ready? <b>Press ENTER to start</b></p>","response":"enter","trial_type":"html-keyboard-response","trial_index":80,"time_elapsed":103320,"internal_node_id":"0.0-5.0-1.0","screen_height":616,"screen_width":1280,"browser":"chrome","browser_version":"103.0.0","mobile":false,"os":"Windows 10","vsync_rate":61.26,"participant_id":"S00"},{"rt":null,"stimulus":"<div style=\"font-size:60px;\">+</div>","response":null,"screen":"fixation","trial_type":"html-keyboard-response","trial_index":81,"time_elapsed":104363,"internal_node_id":"0.0-5.0-2.0-0.0","screen_height":616,"screen_width":1280,"browser":"chrome","browser_version":"103.0.0","mobile":false,"os":"Windows 10","vsync_rate":61.26,"participant_id":"S00","trial_duration":530},{"rt":795,"stimulus":"stimuli/Ponzo_str-25.0_diff0.05.png","response":"arrowup","screen":"Trial","block":"Ponzo","correct_response":"arrowup","trial_type":"image-keyboard-response","trial_index":82,"time_elapsed":105159,"internal_node_id":"0.0-5.0-2.0-1.0","screen_height":616,"screen_width":1280,"browser":"chrome","browser_version":"103.0.0","mobile":false,"os":"Windows 10","vsync_rate":61.26,"participant_id":"S00","prestimulus_duration":1043,"correct":true,"type":"Ponzo","illusion_strength":-25,"illusion_difference":0.05,"block_number":2,"trial_number":1},{"rt":null,"stimulus":"<div style=\"font-size:60px;\">+</div>","response":null,"screen":"fixation","trial_type":"html-keyboard-response","trial_index":83,"time_elapsed":105787,"internal_node_id":"0.0-5.0-2.0-0.1","screen_height":616,"screen_width":1280,"browser":"chrome","browser_version":"103.0.0","mobile":false,"os":"Windows 10","vsync_rate":61.26,"participant_id":"S00","trial_duration":620},{"rt":851,"stimulus":"stimuli/Ponzo_str-25.0_diff-0.6.png","response":"arrowdown","screen":"Trial","block":"Ponzo","correct_response":"arrowdown","trial_type":"image-keyboard-response","trial_index":84,"time_elapsed":106640,"internal_node_id":"0.0-5.0-2.0-1.1","screen_height":616,"screen_width":1280,"browser":"chrome","browser_version":"103.0.0","mobile":false,"os":"Windows 10","vsync_rate":61.26,"participant_id":"S00","prestimulus_duration":628,"correct":true,"type":"Ponzo","illusion_strength":-25,"illusion_difference":-0.6,"block_number":2,"trial_number":2},{"rt":null,"stimulus":"<div style=\"font-size:60px;\">+</div>","response":null,"screen":"fixation","trial_type":"html-keyboard-response","trial_index":85,"time_elapsed":107012,"internal_node_id":"0.0-5.0-2.0-0.2","screen_height":616,"screen_width":1280,"browser":"chrome","browser_version":"103.0.0","mobile":false,"os":"Windows 10","vsync_rate":61.26,"participant_id":"S00","trial_duration":357},{"rt":711,"stimulus":"stimuli/Ponzo_str25.0_diff0.05.png","response":"arrowdown","screen":"Trial","block":"Ponzo","correct_response":"arrowup","trial_type":"image-keyboard-response","trial_index":86,"time_elapsed":107724,"internal_node_id":"0.0-5.0-2.0-1.2","screen_height":616,"screen_width":1280,"browser":"chrome","browser_version":"103.0.0","mobile":false,"os":"Windows 10","vsync_rate":61.26,"participant_id":"S00","prestimulus_duration":372,"correct":false,"type":"Ponzo","illusion_strength":25,"illusion_difference":0.05,"block_number":2,"trial_number":3},{"rt":null,"stimulus":"<div style=\"font-size:60px;\">+</div>","response":null,"screen":"fixation","trial_type":"html-keyboard-response","trial_index":87,"time_elapsed":107990,"internal_node_id":"0.0-5.0-2.0-0.3","screen_height":616,"screen_width":1280,"browser":"chrome","browser_version":"103.0.0","mobile":false,"os":"Windows 10","vsync_rate":61.26,"participant_id":"S00","trial_duration":253},{"rt":810,"stimulus":"stimuli/Ponzo_str-5.0_diff-0.6.png","response":"arrowdown","screen":"Trial","block":"Ponzo","correct_response":"arrowdown","trial_type":"image-keyboard-response","trial_index":88,"time_elapsed":108801,"internal_node_id":"0.0-5.0-2.0-1.3","screen_height":616,"screen_width":1280,"browser":"chrome","browser_version":"103.0.0","mobile":false,"os":"Windows 10","vsync_rate":61.26,"participant_id":"S00","prestimulus_duration":266,"correct":true,"type":"Ponzo","illusion_strength":-5,"illusion_difference":-0.6,"block_number":2,"trial_number":4},{"rt":null,"stimulus":"<div style=\"font-size:60px;\">+</div>","response":null,"screen":"fixation","trial_type":"html-keyboard-response","trial_index":89,"time_elapsed":109353,"internal_node_id":"0.0-5.0-2.0-0.4","screen_height":616,"screen_width":1280,"browser":"chrome","browser_version":"103.0.0","mobile":false,"os":"Windows 10","vsync_rate":61.26,"participant_id":"S00","trial_duration":549},{"rt":895,"stimulus":"stimuli/Ponzo_str15.0_diff0.05.png","response":"arrowdown","screen":"Trial","block":"Ponzo","correct_response":"arrowup","trial_type":"image-keyboard-response","trial_index":90,"time_elapsed":110250,"internal_node_id":"0.0-5.0-2.0-1.4","screen_height":616,"screen_width":1280,"browser":"chrome","browser_version":"103.0.0","mobile":false,"os":"Windows 10","vsync_rate":61.26,"participant_id":"S00","prestimulus_duration":552,"correct":false,"type":"Ponzo","illusion_strength":15,"illusion_difference":0.05,"block_number":2,"trial_number":5},{"rt":null,"stimulus":"<div style=\"font-size:60px;\">+</div>","response":null,"screen":"fixation","trial_type":"html-keyboard-response","trial_index":91,"time_elapsed":110625,"internal_node_id":"0.0-5.0-2.0-0.5","screen_height":616,"screen_width":1280,"browser":"chrome","browser_version":"103.0.0","mobile":false,"os":"Windows 10","vsync_rate":61.26,"participant_id":"S00","trial_duration":373},{"rt":702,"stimulus":"stimuli/Ponzo_str5.0_diff-0.6.png","response":"arrowdown","screen":"Trial","block":"Ponzo","correct_response":"arrowdown","trial_type":"image-keyboard-response","trial_index":92,"time_elapsed":111328,"internal_node_id":"0.0-5.0-2.0-1.5","screen_height":616,"screen_width":1280,"browser":"chrome","browser_version":"103.0.0","mobile":false,"os":"Windows 10","vsync_rate":61.26,"participant_id":"S00","prestimulus_duration":375,"correct":true,"type":"Ponzo","illusion_strength":5,"illusion_difference":-0.6,"block_number":2,"trial_number":6},{"rt":null,"stimulus":"<div style=\"font-size:60px;\">+</div>","response":null,"screen":"fixation","trial_type":"html-keyboard-response","trial_index":93,"time_elapsed":112245,"internal_node_id":"0.0-5.0-2.0-0.6","screen_height":616,"screen_width":1280,"browser":"chrome","browser_version":"103.0.0","mobile":false,"os":"Windows 10","vsync_rate":61.26,"participant_id":"S00","trial_duration":914},{"rt":732,"stimulus":"stimuli/Ponzo_str-15.0_diff0.6.png","response":"arrowup","screen":"Trial","block":"Ponzo","correct_response":"arrowup","trial_type":"image-keyboard-response","trial_index":94,"time_elapsed":112978,"internal_node_id":"0.0-5.0-2.0-1.6","screen_height":616,"screen_width":1280,"browser":"chrome","browser_version":"103.0.0","mobile":false,"os":"Windows 10","vsync_rate":61.26,"participant_id":"S00","prestimulus_duration":917,"correct":true,"type":"Ponzo","illusion_strength":-15,"illusion_difference":0.6,"block_number":2,"trial_number":7},{"rt":null,"stimulus":"<div style=\"font-size:60px;\">+</div>","response":null,"screen":"fixation","trial_type":"html-keyboard-response","trial_index":95,"time_elapsed":113990,"internal_node_id":"0.0-5.0-2.0-0.7","screen_height":616,"screen_width":1280,"browser":"chrome","browser_version":"103.0.0","mobile":false,"os":"Windows 10","vsync_rate":61.26,"participant_id":"S00","trial_duration":996},{"rt":1006,"stimulus":"stimuli/Ponzo_str25.0_diff-0.05.png","response":"arrowup","screen":"Trial","block":"Ponzo","correct_response":"arrowdown","trial_type":"image-keyboard-response","trial_index":96,"time_elapsed":114997,"internal_node_id":"0.0-5.0-2.0-1.7","screen_height":616,"screen_width":1280,"browser":"chrome","browser_version":"103.0.0","mobile":false,"os":"Windows 10","vsync_rate":61.26,"participant_id":"S00","prestimulus_duration":1012,"correct":false,"type":"Ponzo","illusion_strength":25,"illusion_difference":-0.05,"block_number":2,"trial_number":8},{"rt":null,"stimulus":"<div style=\"font-size:60px;\">+</div>","response":null,"screen":"fixation","trial_type":"html-keyboard-response","trial_index":97,"time_elapsed":115351,"internal_node_id":"0.0-5.0-2.0-0.8","screen_height":616,"screen_width":1280,"browser":"chrome","browser_version":"103.0.0","mobile":false,"os":"Windows 10","vsync_rate":61.26,"participant_id":"S00","trial_duration":337},{"rt":836,"stimulus":"stimuli/Ponzo_str5.0_diff0.6.png","response":"arrowup","screen":"Trial","block":"Ponzo","correct_response":"arrowup","trial_type":"image-keyboard-response","trial_index":98,"time_elapsed":116188,"internal_node_id":"0.0-5.0-2.0-1.8","screen_height":616,"screen_width":1280,"browser":"chrome","browser_version":"103.0.0","mobile":false,"os":"Windows 10","vsync_rate":61.26,"participant_id":"S00","prestimulus_duration":354,"correct":true,"type":"Ponzo","illusion_strength":5,"illusion_difference":0.6,"block_number":2,"trial_number":9},{"rt":null,"stimulus":"<div style=\"font-size:60px;\">+</div>","response":null,"screen":"fixation","trial_type":"html-keyboard-response","trial_index":99,"time_elapsed":116995,"internal_node_id":"0.0-5.0-2.0-0.9","screen_height":616,"screen_width":1280,"browser":"chrome","browser_version":"103.0.0","mobile":false,"os":"Windows 10","vsync_rate":61.26,"participant_id":"S00","trial_duration":793},{"rt":765,"stimulus":"stimuli/Ponzo_str-5.0_diff0.6.png","response":"arrowup","screen":"Trial","block":"Ponzo","correct_response":"arrowup","trial_type":"image-keyboard-response","trial_index":100,"time_elapsed":117762,"internal_node_id":"0.0-5.0-2.0-1.9","screen_height":616,"screen_width":1280,"browser":"chrome","browser_version":"103.0.0","mobile":false,"os":"Windows 10","vsync_rate":61.26,"participant_id":"S00","prestimulus_duration":807,"correct":true,"type":"Ponzo","illusion_strength":-5,"illusion_difference":0.6,"block_number":2,"trial_number":10},{"rt":null,"stimulus":"<div style=\"font-size:60px;\">+</div>","response":null,"screen":"fixation","trial_type":"html-keyboard-response","trial_index":101,"time_elapsed":118697,"internal_node_id":"0.0-5.0-2.0-0.10","screen_height":616,"screen_width":1280,"browser":"chrome","browser_version":"103.0.0","mobile":false,"os":"Windows 10","vsync_rate":61.26,"participant_id":"S00","trial_duration":930},{"rt":796,"stimulus":"stimuli/Ponzo_str-15.0_diff-0.26.png","response":"arrowdown","screen":"Trial","block":"Ponzo","correct_response":"arrowdown","trial_type":"image-keyboard-response","trial_index":102,"time_elapsed":119494,"internal_node_id":"0.0-5.0-2.0-1.10","screen_height":616,"screen_width":1280,"browser":"chrome","browser_version":"103.0.0","mobile":false,"os":"Windows 10","vsync_rate":61.26,"participant_id":"S00","prestimulus_duration":935,"correct":true,"type":"Ponzo","illusion_strength":-15,"illusion_difference":-0.25625,"block_number":2,"trial_number":11},{"rt":null,"stimulus":"<div style=\"font-size:60px;\">+</div>","response":null,"screen":"fixation","trial_type":"html-keyboard-response","trial_index":103,"time_elapsed":120357,"internal_node_id":"0.0-5.0-2.0-0.11","screen_height":616,"screen_width":1280,"browser":"chrome","browser_version":"103.0.0","mobile":false,"os":"Windows 10","vsync_rate":61.26,"participant_id":"S00","trial_duration":855},{"rt":851,"stimulus":"stimuli/Ponzo_str-15.0_diff0.26.png","response":"arrowup","screen":"Trial","block":"Ponzo","correct_response":"arrowup","trial_type":"image-keyboard-response","trial_index":104,"time_elapsed":121209,"internal_node_id":"0.0-5.0-2.0-1.11","screen_height":616,"screen_width":1280,"browser":"chrome","browser_version":"103.0.0","mobile":false,"os":"Windows 10","vsync_rate":61.26,"participant_id":"S00","prestimulus_duration":863,"correct":true,"type":"Ponzo","illusion_strength":-15,"illusion_difference":0.25625,"block_number":2,"trial_number":12},{"rt":null,"stimulus":"<div style=\"font-size:60px;\">+</div>","response":null,"screen":"fixation","trial_type":"html-keyboard-response","trial_index":105,"time_elapsed":122154,"internal_node_id":"0.0-5.0-2.0-0.12","screen_height":616,"screen_width":1280,"browser":"chrome","browser_version":"103.0.0","mobile":false,"os":"Windows 10","vsync_rate":61.26,"participant_id":"S00","trial_duration":932},{"rt":672,"stimulus":"stimuli/Ponzo_str-25.0_diff0.6.png","response":"arrowup","screen":"Trial","block":"Ponzo","correct_response":"arrowup","trial_type":"image-keyboard-response","trial_index":106,"time_elapsed":122827,"internal_node_id":"0.0-5.0-2.0-1.12","screen_height":616,"screen_width":1280,"browser":"chrome","browser_version":"103.0.0","mobile":false,"os":"Windows 10","vsync_rate":61.26,"participant_id":"S00","prestimulus_duration":945,"correct":true,"type":"Ponzo","illusion_strength":-25,"illusion_difference":0.6,"block_number":2,"trial_number":13},{"rt":null,"stimulus":"<div style=\"font-size:60px;\">+</div>","response":null,"screen":"fixation","trial_type":"html-keyboard-response","trial_index":107,"time_elapsed":123609,"internal_node_id":"0.0-5.0-2.0-0.13","screen_height":616,"screen_width":1280,"browser":"chrome","browser_version":"103.0.0","mobile":false,"os":"Windows 10","vsync_rate":61.26,"participant_id":"S00","trial_duration":773},{"rt":826,"stimulus":"stimuli/Ponzo_str15.0_diff-0.05.png","response":"arrowdown","screen":"Trial","block":"Ponzo","correct_response":"arrowdown","trial_type":"image-keyboard-response","trial_index":108,"time_elapsed":124436,"internal_node_id":"0.0-5.0-2.0-1.13","screen_height":616,"screen_width":1280,"browser":"chrome","browser_version":"103.0.0","mobile":false,"os":"Windows 10","vsync_rate":61.26,"participant_id":"S00","prestimulus_duration":782,"correct":true,"type":"Ponzo","illusion_strength":15,"illusion_difference":-0.05,"block_number":2,"trial_number":14},{"rt":null,"stimulus":"<div style=\"font-size:60px;\">+</div>","response":null,"screen":"fixation","trial_type":"html-keyboard-response","trial_index":109,"time_elapsed":125076,"internal_node_id":"0.0-5.0-2.0-0.14","screen_height":616,"screen_width":1280,"browser":"chrome","browser_version":"103.0.0","mobile":false,"os":"Windows 10","vsync_rate":61.26,"participant_id":"S00","trial_duration":638},{"rt":742,"stimulus":"stimuli/Ponzo_str15.0_diff-0.6.png","response":"arrowdown","screen":"Trial","block":"Ponzo","correct_response":"arrowdown","trial_type":"image-keyboard-response","trial_index":110,"time_elapsed":125819,"internal_node_id":"0.0-5.0-2.0-1.14","screen_height":616,"screen_width":1280,"browser":"chrome","browser_version":"103.0.0","mobile":false,"os":"Windows 10","vsync_rate":61.26,"participant_id":"S00","prestimulus_duration":640,"correct":true,"type":"Ponzo","illusion_strength":15,"illusion_difference":-0.6,"block_number":2,"trial_number":15},{"rt":null,"stimulus":"<div style=\"font-size:60px;\">+</div>","response":null,"screen":"fixation","trial_type":"html-keyboard-response","trial_index":111,"time_elapsed":126404,"internal_node_id":"0.0-5.0-2.0-0.15","screen_height":616,"screen_width":1280,"browser":"chrome","browser_version":"103.0.0","mobile":false,"os":"Windows 10","vsync_rate":61.26,"participant_id":"S00","trial_duration":573},{"rt":896,"stimulus":"stimuli/Ponzo_str-15.0_diff0.05.png","response":"arrowup","screen":"Trial","block":"Ponzo","correct_response":"arrowup","trial_type":"image-keyboard-response","trial_index":112,"time_elapsed":127302,"internal_node_id":"0.0-5.0-2.0-1.15","screen_height":616,"screen_width":1280,"browser":"chrome","browser_version":"103.0.0","mobile":false,"os":"Windows 10","vsync_rate":61.26,"participant_id":"S00","prestimulus_duration":585,"correct":true,"type":"Ponzo","illusion_strength":-15,"illusion_difference":0.05,"block_number":2,"trial_number":16},{"rt":null,"stimulus":"<div style=\"font-size:60px;\">+</div>","response":null,"screen":"fixation","trial_type":"html-keyboard-response","trial_index":113,"time_elapsed":128251,"internal_node_id":"0.0-5.0-2.0-0.16","screen_height":616,"screen_width":1280,"browser":"chrome","browser_version":"103.0.0","mobile":false,"os":"Windows 10","vsync_rate":61.26,"participant_id":"S00","trial_duration":942},{"rt":783,"stimulus":"stimuli/Ponzo_str-15.0_diff-0.05.png","response":"arrowdown","screen":"Trial","block":"Ponzo","correct_response":"arrowdown","trial_type":"image-keyboard-response","trial_index":114,"time_elapsed":129034,"internal_node_id":"0.0-5.0-2.0-1.16","screen_height":616,"screen_width":1280,"browser":"chrome","browser_version":"103.0.0","mobile":false,"os":"Windows 10","vsync_rate":61.26,"participant_id":"S00","prestimulus_duration":949,"correct":true,"type":"Ponzo","illusion_strength":-15,"illusion_difference":-0.05,"block_number":2,"trial_number":17},{"rt":null,"stimulus":"<div style=\"font-size:60px;\">+</div>","response":null,"screen":"fixation","trial_type":"html-keyboard-response","trial_index":115,"time_elapsed":129673,"internal_node_id":"0.0-5.0-2.0-0.17","screen_height":616,"screen_width":1280,"browser":"chrome","browser_version":"103.0.0","mobile":false,"os":"Windows 10","vsync_rate":61.26,"participant_id":"S00","trial_duration":634},{"rt":1136,"stimulus":"stimuli/Ponzo_str-5.0_diff0.26.png","response":"arrowup","screen":"Trial","block":"Ponzo","correct_response":"arrowup","trial_type":"image-keyboard-response","trial_index":116,"time_elapsed":130810,"internal_node_id":"0.0-5.0-2.0-1.17","screen_height":616,"screen_width":1280,"browser":"chrome","browser_version":"103.0.0","mobile":false,"os":"Windows 10","vsync_rate":61.26,"participant_id":"S00","prestimulus_duration":639,"correct":true,"type":"Ponzo","illusion_strength":-5,"illusion_difference":0.25625,"block_number":2,"trial_number":18},{"rt":null,"stimulus":"<div style=\"font-size:60px;\">+</div>","response":null,"screen":"fixation","trial_type":"html-keyboard-response","trial_index":117,"time_elapsed":131656,"internal_node_id":"0.0-5.0-2.0-0.18","screen_height":616,"screen_width":1280,"browser":"chrome","browser_version":"103.0.0","mobile":false,"os":"Windows 10","vsync_rate":61.26,"participant_id":"S00","trial_duration":843},{"rt":675,"stimulus":"stimuli/Ponzo_str25.0_diff-0.26.png","response":"arrowup","screen":"Trial","block":"Ponzo","correct_response":"arrowdown","trial_type":"image-keyboard-response","trial_index":118,"time_elapsed":132332,"internal_node_id":"0.0-5.0-2.0-1.18","screen_height":616,"screen_width":1280,"browser":"chrome","browser_version":"103.0.0","mobile":false,"os":"Windows 10","vsync_rate":61.26,"participant_id":"S00","prestimulus_duration":846,"correct":false,"type":"Ponzo","illusion_strength":25,"illusion_difference":-0.25625,"block_number":2,"trial_number":19},{"rt":null,"stimulus":"<div style=\"font-size:60px;\">+</div>","response":null,"screen":"fixation","trial_type":"html-keyboard-response","trial_index":119,"time_elapsed":133262,"internal_node_id":"0.0-5.0-2.0-0.19","screen_height":616,"screen_width":1280,"browser":"chrome","browser_version":"103.0.0","mobile":false,"os":"Windows 10","vsync_rate":61.26,"participant_id":"S00","trial_duration":923},{"rt":614,"stimulus":"stimuli/Ponzo_str-5.0_diff0.05.png","response":"arrowup","screen":"Trial","block":"Ponzo","correct_response":"arrowup","trial_type":"image-keyboard-response","trial_index":120,"time_elapsed":133877,"internal_node_id":"0.0-5.0-2.0-1.19","screen_height":616,"screen_width":1280,"browser":"chrome","browser_version":"103.0.0","mobile":false,"os":"Windows 10","vsync_rate":61.26,"participant_id":"S00","prestimulus_duration":930,"correct":true,"type":"Ponzo","illusion_strength":-5,"illusion_difference":0.05,"block_number":2,"trial_number":20},{"rt":null,"stimulus":"<div style=\"font-size:60px;\">+</div>","response":null,"screen":"fixation","trial_type":"html-keyboard-response","trial_index":121,"time_elapsed":134481,"internal_node_id":"0.0-5.0-2.0-0.20","screen_height":616,"screen_width":1280,"browser":"chrome","browser_version":"103.0.0","mobile":false,"os":"Windows 10","vsync_rate":61.26,"participant_id":"S00","trial_duration":594},{"rt":747,"stimulus":"stimuli/Ponzo_str15.0_diff-0.26.png","response":"arrowup","screen":"Trial","block":"Ponzo","correct_response":"arrowdown","trial_type":"image-keyboard-response","trial_index":122,"time_elapsed":135229,"internal_node_id":"0.0-5.0-2.0-1.20","screen_height":616,"screen_width":1280,"browser":"chrome","browser_version":"103.0.0","mobile":false,"os":"Windows 10","vsync_rate":61.26,"participant_id":"S00","prestimulus_duration":604,"correct":false,"type":"Ponzo","illusion_strength":15,"illusion_difference":-0.25625,"block_number":2,"trial_number":21},{"rt":null,"stimulus":"<div style=\"font-size:60px;\">+</div>","response":null,"screen":"fixation","trial_type":"html-keyboard-response","trial_index":123,"time_elapsed":135589,"internal_node_id":"0.0-5.0-2.0-0.21","screen_height":616,"screen_width":1280,"browser":"chrome","browser_version":"103.0.0","mobile":false,"os":"Windows 10","vsync_rate":61.26,"participant_id":"S00","trial_duration":349},{"rt":762,"stimulus":"stimuli/Ponzo_str25.0_diff0.26.png","response":"arrowdown","screen":"Trial","block":"Ponzo","correct_response":"arrowup","trial_type":"image-keyboard-response","trial_index":124,"time_elapsed":136352,"internal_node_id":"0.0-5.0-2.0-1.21","screen_height":616,"screen_width":1280,"browser":"chrome","browser_version":"103.0.0","mobile":false,"os":"Windows 10","vsync_rate":61.26,"participant_id":"S00","prestimulus_duration":360,"correct":false,"type":"Ponzo","illusion_strength":25,"illusion_difference":0.25625,"block_number":2,"trial_number":22},{"rt":null,"stimulus":"<div style=\"font-size:60px;\">+</div>","response":null,"screen":"fixation","trial_type":"html-keyboard-response","trial_index":125,"time_elapsed":137348,"internal_node_id":"0.0-5.0-2.0-0.22","screen_height":616,"screen_width":1280,"browser":"chrome","browser_version":"103.0.0","mobile":false,"os":"Windows 10","vsync_rate":61.26,"participant_id":"S00","trial_duration":992},{"rt":801,"stimulus":"stimuli/Ponzo_str5.0_diff-0.05.png","response":"arrowdown","screen":"Trial","block":"Ponzo","correct_response":"arrowdown","trial_type":"image-keyboard-response","trial_index":126,"time_elapsed":138150,"internal_node_id":"0.0-5.0-2.0-1.22","screen_height":616,"screen_width":1280,"browser":"chrome","browser_version":"103.0.0","mobile":false,"os":"Windows 10","vsync_rate":61.26,"participant_id":"S00","prestimulus_duration":996,"correct":true,"type":"Ponzo","illusion_strength":5,"illusion_difference":-0.05,"block_number":2,"trial_number":23},{"rt":null,"stimulus":"<div style=\"font-size:60px;\">+</div>","response":null,"screen":"fixation","trial_type":"html-keyboard-response","trial_index":127,"time_elapsed":138668,"internal_node_id":"0.0-5.0-2.0-0.23","screen_height":616,"screen_width":1280,"browser":"chrome","browser_version":"103.0.0","mobile":false,"os":"Windows 10","vsync_rate":61.26,"participant_id":"S00","trial_duration":506},{"rt":937,"stimulus":"stimuli/Ponzo_str-25.0_diff-0.26.png","response":"arrowdown","screen":"Trial","block":"Ponzo","correct_response":"arrowdown","trial_type":"image-keyboard-response","trial_index":128,"time_elapsed":139605,"internal_node_id":"0.0-5.0-2.0-1.23","screen_height":616,"screen_width":1280,"browser":"chrome","browser_version":"103.0.0","mobile":false,"os":"Windows 10","vsync_rate":61.26,"participant_id":"S00","prestimulus_duration":518,"correct":true,"type":"Ponzo","illusion_strength":-25,"illusion_difference":-0.25625,"block_number":2,"trial_number":24},{"rt":null,"stimulus":"<div style=\"font-size:60px;\">+</div>","response":null,"screen":"fixation","trial_type":"html-keyboard-response","trial_index":129,"time_elapsed":140414,"internal_node_id":"0.0-5.0-2.0-0.24","screen_height":616,"screen_width":1280,"browser":"chrome","browser_version":"103.0.0","mobile":false,"os":"Windows 10","vsync_rate":61.26,"participant_id":"S00","trial_duration":799},{"rt":769,"stimulus":"stimuli/Ponzo_str5.0_diff0.05.png","response":"arrowdown","screen":"Trial","block":"Ponzo","correct_response":"arrowup","trial_type":"image-keyboard-response","trial_index":130,"time_elapsed":141184,"internal_node_id":"0.0-5.0-2.0-1.24","screen_height":616,"screen_width":1280,"browser":"chrome","browser_version":"103.0.0","mobile":false,"os":"Windows 10","vsync_rate":61.26,"participant_id":"S00","prestimulus_duration":809,"correct":false,"type":"Ponzo","illusion_strength":5,"illusion_difference":0.05,"block_number":2,"trial_number":25},{"rt":null,"stimulus":"<div style=\"font-size:60px;\">+</div>","response":null,"screen":"fixation","trial_type":"html-keyboard-response","trial_index":131,"time_elapsed":141690,"internal_node_id":"0.0-5.0-2.0-0.25","screen_height":616,"screen_width":1280,"browser":"chrome","browser_version":"103.0.0","mobile":false,"os":"Windows 10","vsync_rate":61.26,"participant_id":"S00","trial_duration":503},{"rt":865,"stimulus":"stimuli/Ponzo_str-5.0_diff-0.05.png","response":"arrowdown","screen":"Trial","block":"Ponzo","correct_response":"arrowdown","trial_type":"image-keyboard-response","trial_index":132,"time_elapsed":142556,"internal_node_id":"0.0-5.0-2.0-1.25","screen_height":616,"screen_width":1280,"browser":"chrome","browser_version":"103.0.0","mobile":false,"os":"Windows 10","vsync_rate":61.26,"participant_id":"S00","prestimulus_duration":506,"correct":true,"type":"Ponzo","illusion_strength":-5,"illusion_difference":-0.05,"block_number":2,"trial_number":26},{"rt":null,"stimulus":"<div style=\"font-size:60px;\">+</div>","response":null,"screen":"fixation","trial_type":"html-keyboard-response","trial_index":133,"time_elapsed":143456,"internal_node_id":"0.0-5.0-2.0-0.26","screen_height":616,"screen_width":1280,"browser":"chrome","browser_version":"103.0.0","mobile":false,"os":"Windows 10","vsync_rate":61.26,"participant_id":"S00","trial_duration":895},{"rt":790,"stimulus":"stimuli/Ponzo_str5.0_diff0.26.png","response":"arrowdown","screen":"Trial","block":"Ponzo","correct_response":"arrowup","trial_type":"image-keyboard-response","trial_index":134,"time_elapsed":144247,"internal_node_id":"0.0-5.0-2.0-1.26","screen_height":616,"screen_width":1280,"browser":"chrome","browser_version":"103.0.0","mobile":false,"os":"Windows 10","vsync_rate":61.26,"participant_id":"S00","prestimulus_duration":900,"correct":false,"type":"Ponzo","illusion_strength":5,"illusion_difference":0.25625,"block_number":2,"trial_number":27},{"rt":null,"stimulus":"<div style=\"font-size:60px;\">+</div>","response":null,"screen":"fixation","trial_type":"html-keyboard-response","trial_index":135,"time_elapsed":144860,"internal_node_id":"0.0-5.0-2.0-0.27","screen_height":616,"screen_width":1280,"browser":"chrome","browser_version":"103.0.0","mobile":false,"os":"Windows 10","vsync_rate":61.26,"participant_id":"S00","trial_duration":611},{"rt":845,"stimulus":"stimuli/Ponzo_str-5.0_diff-0.26.png","response":"arrowdown","screen":"Trial","block":"Ponzo","correct_response":"arrowdown","trial_type":"image-keyboard-response","trial_index":136,"time_elapsed":145707,"internal_node_id":"0.0-5.0-2.0-1.27","screen_height":616,"screen_width":1280,"browser":"chrome","browser_version":"103.0.0","mobile":false,"os":"Windows 10","vsync_rate":61.26,"participant_id":"S00","prestimulus_duration":613,"correct":true,"type":"Ponzo","illusion_strength":-5,"illusion_difference":-0.25625,"block_number":2,"trial_number":28},{"rt":null,"stimulus":"<div style=\"font-size:60px;\">+</div>","response":null,"screen":"fixation","trial_type":"html-keyboard-response","trial_index":137,"time_elapsed":146320,"internal_node_id":"0.0-5.0-2.0-0.28","screen_height":616,"screen_width":1280,"browser":"chrome","browser_version":"103.0.0","mobile":false,"os":"Windows 10","vsync_rate":61.26,"participant_id":"S00","trial_duration":603},{"rt":743,"stimulus":"stimuli/Ponzo_str-25.0_diff0.26.png","response":"arrowup","screen":"Trial","block":"Ponzo","correct_response":"arrowup","trial_type":"image-keyboard-response","trial_index":138,"time_elapsed":147064,"internal_node_id":"0.0-5.0-2.0-1.28","screen_height":616,"screen_width":1280,"browser":"chrome","browser_version":"103.0.0","mobile":false,"os":"Windows 10","vsync_rate":61.26,"participant_id":"S00","prestimulus_duration":613,"correct":true,"type":"Ponzo","illusion_strength":-25,"illusion_difference":0.25625,"block_number":2,"trial_number":29},{"rt":null,"stimulus":"<div style=\"font-size:60px;\">+</div>","response":null,"screen":"fixation","trial_type":"html-keyboard-response","trial_index":139,"time_elapsed":148073,"internal_node_id":"0.0-5.0-2.0-0.29","screen_height":616,"screen_width":1280,"browser":"chrome","browser_version":"103.0.0","mobile":false,"os":"Windows 10","vsync_rate":61.26,"participant_id":"S00","trial_duration":996},{"rt":1036,"stimulus":"stimuli/Ponzo_str25.0_diff0.6.png","response":"arrowup","screen":"Trial","block":"Ponzo","correct_response":"arrowup","trial_type":"image-keyboard-response","trial_index":140,"time_elapsed":149110,"internal_node_id":"0.0-5.0-2.0-1.29","screen_height":616,"screen_width":1280,"browser":"chrome","browser_version":"103.0.0","mobile":false,"os":"Windows 10","vsync_rate":61.26,"participant_id":"S00","prestimulus_duration":1009,"correct":true,"type":"Ponzo","illusion_strength":25,"illusion_difference":0.6,"block_number":2,"trial_number":30},{"rt":null,"stimulus":"<div style=\"font-size:60px;\">+</div>","response":null,"screen":"fixation","trial_type":"html-keyboard-response","trial_index":141,"time_elapsed":149822,"internal_node_id":"0.0-5.0-2.0-0.30","screen_height":616,"screen_width":1280,"browser":"chrome","browser_version":"103.0.0","mobile":false,"os":"Windows 10","vsync_rate":61.26,"participant_id":"S00","trial_duration":697},{"rt":1035,"stimulus":"stimuli/Ponzo_str25.0_diff-0.6.png","response":"arrowup","screen":"Trial","block":"Ponzo","correct_response":"arrowdown","trial_type":"image-keyboard-response","trial_index":142,"time_elapsed":150858,"internal_node_id":"0.0-5.0-2.0-1.30","screen_height":616,"screen_width":1280,"browser":"chrome","browser_version":"103.0.0","mobile":false,"os":"Windows 10","vsync_rate":61.26,"participant_id":"S00","prestimulus_duration":712,"correct":false,"type":"Ponzo","illusion_strength":25,"illusion_difference":-0.6,"block_number":2,"trial_number":31},{"rt":null,"stimulus":"<div style=\"font-size:60px;\">+</div>","response":null,"screen":"fixation","trial_type":"html-keyboard-response","trial_index":143,"time_elapsed":151597,"internal_node_id":"0.0-5.0-2.0-0.31","screen_height":616,"screen_width":1280,"browser":"chrome","browser_version":"103.0.0","mobile":false,"os":"Windows 10","vsync_rate":61.26,"participant_id":"S00","trial_duration":734},{"rt":797,"stimulus":"stimuli/Ponzo_str15.0_diff0.6.png","response":"arrowup","screen":"Trial","block":"Ponzo","correct_response":"arrowup","trial_type":"image-keyboard-response","trial_index":144,"time_elapsed":152395,"internal_node_id":"0.0-5.0-2.0-1.31","screen_height":616,"screen_width":1280,"browser":"chrome","browser_version":"103.0.0","mobile":false,"os":"Windows 10","vsync_rate":61.26,"participant_id":"S00","prestimulus_duration":739,"correct":true,"type":"Ponzo","illusion_strength":15,"illusion_difference":0.6,"block_number":2,"trial_number":32},{"rt":null,"stimulus":"<div style=\"font-size:60px;\">+</div>","response":null,"screen":"fixation","trial_type":"html-keyboard-response","trial_index":145,"time_elapsed":152669,"internal_node_id":"0.0-5.0-2.0-0.32","screen_height":616,"screen_width":1280,"browser":"chrome","browser_version":"103.0.0","mobile":false,"os":"Windows 10","vsync_rate":61.26,"participant_id":"S00","trial_duration":267},{"rt":1138,"stimulus":"stimuli/Ponzo_str15.0_diff0.26.png","response":"arrowup","screen":"Trial","block":"Ponzo","correct_response":"arrowup","trial_type":"image-keyboard-response","trial_index":146,"time_elapsed":153808,"internal_node_id":"0.0-5.0-2.0-1.32","screen_height":616,"screen_width":1280,"browser":"chrome","browser_version":"103.0.0","mobile":false,"os":"Windows 10","vsync_rate":61.26,"participant_id":"S00","prestimulus_duration":274,"correct":true,"type":"Ponzo","illusion_strength":15,"illusion_difference":0.25625,"block_number":2,"trial_number":33},{"rt":null,"stimulus":"<div style=\"font-size:60px;\">+</div>","response":null,"screen":"fixation","trial_type":"html-keyboard-response","trial_index":147,"time_elapsed":154636,"internal_node_id":"0.0-5.0-2.0-0.33","screen_height":616,"screen_width":1280,"browser":"chrome","browser_version":"103.0.0","mobile":false,"os":"Windows 10","vsync_rate":61.26,"participant_id":"S00","trial_duration":826},{"rt":790,"stimulus":"stimuli/Ponzo_str-15.0_diff-0.6.png","response":"arrowdown","screen":"Trial","block":"Ponzo","correct_response":"arrowdown","trial_type":"image-keyboard-response","trial_index":148,"time_elapsed":155428,"internal_node_id":"0.0-5.0-2.0-1.33","screen_height":616,"screen_width":1280,"browser":"chrome","browser_version":"103.0.0","mobile":false,"os":"Windows 10","vsync_rate":61.26,"participant_id":"S00","prestimulus_duration":828,"correct":true,"type":"Ponzo","illusion_strength":-15,"illusion_difference":-0.6,"block_number":2,"trial_number":34},{"rt":null,"stimulus":"<div style=\"font-size:60px;\">+</div>","response":null,"screen":"fixation","trial_type":"html-keyboard-response","trial_index":149,"time_elapsed":156372,"internal_node_id":"0.0-5.0-2.0-0.34","screen_height":616,"screen_width":1280,"browser":"chrome","browser_version":"103.0.0","mobile":false,"os":"Windows 10","vsync_rate":61.26,"participant_id":"S00","trial_duration":939},{"rt":839,"stimulus":"stimuli/Ponzo_str5.0_diff-0.26.png","response":"arrowdown","screen":"Trial","block":"Ponzo","correct_response":"arrowdown","trial_type":"image-keyboard-response","trial_index":150,"time_elapsed":157212,"internal_node_id":"0.0-5.0-2.0-1.34","screen_height":616,"screen_width":1280,"browser":"chrome","browser_version":"103.0.0","mobile":false,"os":"Windows 10","vsync_rate":61.26,"participant_id":"S00","prestimulus_duration":944,"correct":true,"type":"Ponzo","illusion_strength":5,"illusion_difference":-0.25625,"block_number":2,"trial_number":35},{"rt":null,"stimulus":"<div style=\"font-size:60px;\">+</div>","response":null,"screen":"fixation","trial_type":"html-keyboard-response","trial_index":151,"time_elapsed":157549,"internal_node_id":"0.0-5.0-2.0-0.35","screen_height":616,"screen_width":1280,"browser":"chrome","browser_version":"103.0.0","mobile":false,"os":"Windows 10","vsync_rate":61.26,"participant_id":"S00","trial_duration":322},{"rt":796,"stimulus":"stimuli/Ponzo_str-25.0_diff-0.05.png","response":"arrowdown","screen":"Trial","block":"Ponzo","correct_response":"arrowdown","trial_type":"image-keyboard-response","trial_index":152,"time_elapsed":158347,"internal_node_id":"0.0-5.0-2.0-1.35","screen_height":616,"screen_width":1280,"browser":"chrome","browser_version":"103.0.0","mobile":false,"os":"Windows 10","vsync_rate":61.26,"participant_id":"S00","prestimulus_duration":337,"correct":true,"type":"Ponzo","illusion_strength":-25,"illusion_difference":-0.05,"block_number":2,"trial_number":36},{"rt":2504,"stimulus":"<p>Your score for this illusion is <p style=\"color: black; font-size: 48px; font-weight: bold;\">3894</p><hr><hr><p>Can you do better in the next illusion?</p>","response":0,"screen":"block_results","trial_type":"html-button-response","trial_index":153,"time_elapsed":160858,"internal_node_id":"0.0-5.0-3.0","screen_height":616,"screen_width":1280,"browser":"chrome","browser_version":"103.0.0","mobile":false,"os":"Windows 10","vsync_rate":61.26,"participant_id":"S00"},{"success":true,"timeout":false,"failed_images":[],"failed_audio":[],"failed_video":[],"trial_type":"preload","trial_index":154,"time_elapsed":160863,"internal_node_id":"0.0-6.0-0.0","screen_height":616,"screen_width":1280,"browser":"chrome","browser_version":"103.0.0","mobile":false,"os":"Windows 10","vsync_rate":61.26,"participant_id":"S00"},{"rt":16036,"stimulus":"<p><b>Part 3</b></p><p>In this part, two horizontal red lines will appear one above the other.</p><p>Your task is to tell <b>the direction</b> towards which the red lines are converging, as fast as you can, and without making errors.</p><p>Don't get distracted by the black lines!</p><p>Press <b>the LEFT or the RIGHT arrow</b> to indicate the <b>direction where the red lines are pointing.</b></p><div style='float: center'><img src='utils/stimuli_demo/Zollner_Demo.png' height='300'></img><p><img src='utils/answer/answer_leftright_keyboard.PNG' height='150'></img></p><p class='small'>In this example, the correct answer is the <b>LEFT arrow</b>.</p></div><p>Are you ready? <b>Press ENTER to start</b></p>","response":"enter","trial_type":"html-keyboard-response","trial_index":155,"time_elapsed":176901,"internal_node_id":"0.0-6.0-1.0","screen_height":616,"screen_width":1280,"browser":"chrome","browser_version":"103.0.0","mobile":false,"os":"Windows 10","vsync_rate":61.26,"participant_id":"S00"},{"rt":null,"stimulus":"<div style=\"font-size:60px;\">+</div>","response":null,"screen":"fixation","trial_type":"html-keyboard-response","trial_index":156,"time_elapsed":177976,"internal_node_id":"0.0-6.0-2.0-0.0","screen_height":616,"screen_width":1280,"browser":"chrome","browser_version":"103.0.0","mobile":false,"os":"Windows 10","vsync_rate":61.26,"participant_id":"S00","trial_duration":553},{"rt":1375,"stimulus":"stimuli/Zollner_str-70.0_diff-2.5.png","response":"arrowleft","screen":"Trial","block":"Zollner","correct_response":"arrowleft","trial_type":"image-keyboard-response","trial_index":157,"time_elapsed":179353,"internal_node_id":"0.0-6.0-2.0-1.0","screen_height":616,"screen_width":1280,"browser":"chrome","browser_version":"103.0.0","mobile":false,"os":"Windows 10","vsync_rate":61.26,"participant_id":"S00","prestimulus_duration":1075,"correct":true,"type":"Zollner","illusion_strength":-70,"illusion_difference":-2.5,"block_number":3,"trial_number":1},{"rt":null,"stimulus":"<div style=\"font-size:60px;\">+</div>","response":null,"screen":"fixation","trial_type":"html-keyboard-response","trial_index":158,"time_elapsed":180077,"internal_node_id":"0.0-6.0-2.0-0.1","screen_height":616,"screen_width":1280,"browser":"chrome","browser_version":"103.0.0","mobile":false,"os":"Windows 10","vsync_rate":61.26,"participant_id":"S00","trial_duration":715},{"rt":962,"stimulus":"stimuli/Zollner_str-42.0_diff-1.0.png","response":"arrowright","screen":"Trial","block":"Zollner","correct_response":"arrowleft","trial_type":"image-keyboard-response","trial_index":159,"time_elapsed":181040,"internal_node_id":"0.0-6.0-2.0-1.1","screen_height":616,"screen_width":1280,"browser":"chrome","browser_version":"103.0.0","mobile":false,"os":"Windows 10","vsync_rate":61.26,"participant_id":"S00","prestimulus_duration":724,"correct":false,"type":"Zollner","illusion_strength":-42,"illusion_difference":-1,"block_number":3,"trial_number":2},{"rt":null,"stimulus":"<div style=\"font-size:60px;\">+</div>","response":null,"screen":"fixation","trial_type":"html-keyboard-response","trial_index":160,"time_elapsed":181897,"internal_node_id":"0.0-6.0-2.0-0.2","screen_height":616,"screen_width":1280,"browser":"chrome","browser_version":"103.0.0","mobile":false,"os":"Windows 10","vsync_rate":61.26,"participant_id":"S00","trial_duration":842},{"rt":769,"stimulus":"stimuli/Zollner_str70.0_diff-5.0.png","response":"arrowleft","screen":"Trial","block":"Zollner","correct_response":"arrowleft","trial_type":"image-keyboard-response","trial_index":161,"time_elapsed":182668,"internal_node_id":"0.0-6.0-2.0-1.2","screen_height":616,"screen_width":1280,"browser":"chrome","browser_version":"103.0.0","mobile":false,"os":"Windows 10","vsync_rate":61.26,"participant_id":"S00","prestimulus_duration":857,"correct":true,"type":"Zollner","illusion_strength":70,"illusion_difference":-5,"block_number":3,"trial_number":3},{"rt":null,"stimulus":"<div style=\"font-size:60px;\">+</div>","response":null,"screen":"fixation","trial_type":"html-keyboard-response","trial_index":162,"time_elapsed":182947,"internal_node_id":"0.0-6.0-2.0-0.3","screen_height":616,"screen_width":1280,"browser":"chrome","browser_version":"103.0.0","mobile":false,"os":"Windows 10","vsync_rate":61.26,"participant_id":"S00","trial_duration":265},{"rt":1139,"stimulus":"stimuli/Zollner_str70.0_diff-1.0.png","response":"arrowleft","screen":"Trial","block":"Zollner","correct_response":"arrowleft","trial_type":"image-keyboard-response","trial_index":163,"time_elapsed":184086,"internal_node_id":"0.0-6.0-2.0-1.3","screen_height":616,"screen_width":1280,"browser":"chrome","browser_version":"103.0.0","mobile":false,"os":"Windows 10","vsync_rate":61.26,"participant_id":"S00","prestimulus_duration":279,"correct":true,"type":"Zollner","illusion_strength":70,"illusion_difference":-1,"block_number":3,"trial_number":4},{"rt":null,"stimulus":"<div style=\"font-size:60px;\">+</div>","response":null,"screen":"fixation","trial_type":"html-keyboard-response","trial_index":164,"time_elapsed":184900,"internal_node_id":"0.0-6.0-2.0-0.4","screen_height":616,"screen_width":1280,"browser":"chrome","browser_version":"103.0.0","mobile":false,"os":"Windows 10","vsync_rate":61.26,"participant_id":"S00","trial_duration":800},{"rt":810,"stimulus":"stimuli/Zollner_str-14.0_diff1.0.png","response":"arrowright","screen":"Trial","block":"Zollner","correct_response":"arrowright","trial_type":"image-keyboard-response","trial_index":165,"time_elapsed":185711,"internal_node_id":"0.0-6.0-2.0-1.4","screen_height":616,"screen_width":1280,"browser":"chrome","browser_version":"103.0.0","mobile":false,"os":"Windows 10","vsync_rate":61.26,"participant_id":"S00","prestimulus_duration":814,"correct":true,"type":"Zollner","illusion_strength":-14,"illusion_difference":1,"block_number":3,"trial_number":5},{"rt":null,"stimulus":"<div style=\"font-size:60px;\">+</div>","response":null,"screen":"fixation","trial_type":"html-keyboard-response","trial_index":166,"time_elapsed":186436,"internal_node_id":"0.0-6.0-2.0-0.5","screen_height":616,"screen_width":1280,"browser":"chrome","browser_version":"103.0.0","mobile":false,"os":"Windows 10","vsync_rate":61.26,"participant_id":"S00","trial_duration":722},{"rt":803,"stimulus":"stimuli/Zollner_str-70.0_diff-5.0.png","response":"arrowleft","screen":"Trial","block":"Zollner","correct_response":"arrowleft","trial_type":"image-keyboard-response","trial_index":167,"time_elapsed":187240,"internal_node_id":"0.0-6.0-2.0-1.5","screen_height":616,"screen_width":1280,"browser":"chrome","browser_version":"103.0.0","mobile":false,"os":"Windows 10","vsync_rate":61.26,"participant_id":"S00","prestimulus_duration":725,"correct":true,"type":"Zollner","illusion_strength":-70,"illusion_difference":-5,"block_number":3,"trial_number":6},{"rt":null,"stimulus":"<div style=\"font-size:60px;\">+</div>","response":null,"screen":"fixation","trial_type":"html-keyboard-response","trial_index":168,"time_elapsed":188221,"internal_node_id":"0.0-6.0-2.0-0.6","screen_height":616,"screen_width":1280,"browser":"chrome","browser_version":"103.0.0","mobile":false,"os":"Windows 10","vsync_rate":61.26,"participant_id":"S00","trial_duration":977},{"rt":796,"stimulus":"stimuli/Zollner_str14.0_diff-2.5.png","response":"arrowleft","screen":"Trial","block":"Zollner","correct_response":"arrowleft","trial_type":"image-keyboard-response","trial_index":169,"time_elapsed":189019,"internal_node_id":"0.0-6.0-2.0-1.6","screen_height":616,"screen_width":1280,"browser":"chrome","browser_version":"103.0.0","mobile":false,"os":"Windows 10","vsync_rate":61.26,"participant_id":"S00","prestimulus_duration":981,"correct":true,"type":"Zollner","illusion_strength":14,"illusion_difference":-2.5,"block_number":3,"trial_number":7},{"rt":null,"stimulus":"<div style=\"font-size:60px;\">+</div>","response":null,"screen":"fixation","trial_type":"html-keyboard-response","trial_index":170,"time_elapsed":189619,"internal_node_id":"0.0-6.0-2.0-0.7","screen_height":616,"screen_width":1280,"browser":"chrome","browser_version":"103.0.0","mobile":false,"os":"Windows 10","vsync_rate":61.26,"participant_id":"S00","trial_duration":595},{"rt":993,"stimulus":"stimuli/Zollner_str-70.0_diff-1.0.png","response":"arrowright","screen":"Trial","block":"Zollner","correct_response":"arrowleft","trial_type":"image-keyboard-response","trial_index":171,"time_elapsed":190613,"internal_node_id":"0.0-6.0-2.0-1.7","screen_height":616,"screen_width":1280,"browser":"chrome","browser_version":"103.0.0","mobile":false,"os":"Windows 10","vsync_rate":61.26,"participant_id":"S00","prestimulus_duration":600,"correct":false,"type":"Zollner","illusion_strength":-70,"illusion_difference":-1,"block_number":3,"trial_number":8},{"rt":null,"stimulus":"<div style=\"font-size:60px;\">+</div>","response":null,"screen":"fixation","trial_type":"html-keyboard-response","trial_index":172,"time_elapsed":191034,"internal_node_id":"0.0-6.0-2.0-0.8","screen_height":616,"screen_width":1280,"browser":"chrome","browser_version":"103.0.0","mobile":false,"os":"Windows 10","vsync_rate":61.26,"participant_id":"S00","trial_duration":413},{"rt":1196,"stimulus":"stimuli/Zollner_str70.0_diff2.5.png","response":"arrowleft","screen":"Trial","block":"Zollner","correct_response":"arrowright","trial_type":"image-keyboard-response","trial_index":173,"time_elapsed":192231,"internal_node_id":"0.0-6.0-2.0-1.8","screen_height":616,"screen_width":1280,"browser":"chrome","browser_version":"103.0.0","mobile":false,"os":"Windows 10","vsync_rate":61.26,"participant_id":"S00","prestimulus_duration":421,"correct":false,"type":"Zollner","illusion_strength":70,"illusion_difference":2.5,"block_number":3,"trial_number":9},{"rt":null,"stimulus":"<div style=\"font-size:60px;\">+</div>","response":null,"screen":"fixation","trial_type":"html-keyboard-response","trial_index":174,"time_elapsed":192589,"internal_node_id":"0.0-6.0-2.0-0.9","screen_height":616,"screen_width":1280,"browser":"chrome","browser_version":"103.0.0","mobile":false,"os":"Windows 10","vsync_rate":61.26,"participant_id":"S00","trial_duration":344},{"rt":833,"stimulus":"stimuli/Zollner_str14.0_diff-1.0.png","response":"arrowleft","screen":"Trial","block":"Zollner","correct_response":"arrowleft","trial_type":"image-keyboard-response","trial_index":175,"time_elapsed":193422,"internal_node_id":"0.0-6.0-2.0-1.9","screen_height":616,"screen_width":1280,"browser":"chrome","browser_version":"103.0.0","mobile":false,"os":"Windows 10","vsync_rate":61.26,"participant_id":"S00","prestimulus_duration":358,"correct":true,"type":"Zollner","illusion_strength":14,"illusion_difference":-1,"block_number":3,"trial_number":10},{"rt":null,"stimulus":"<div style=\"font-size:60px;\">+</div>","response":null,"screen":"fixation","trial_type":"html-keyboard-response","trial_index":176,"time_elapsed":194310,"internal_node_id":"0.0-6.0-2.0-0.10","screen_height":616,"screen_width":1280,"browser":"chrome","browser_version":"103.0.0","mobile":false,"os":"Windows 10","vsync_rate":61.26,"participant_id":"S00","trial_duration":880},{"rt":865,"stimulus":"stimuli/Zollner_str-42.0_diff-5.0.png","response":"arrowleft","screen":"Trial","block":"Zollner","correct_response":"arrowleft","trial_type":"image-keyboard-response","trial_index":177,"time_elapsed":195176,"internal_node_id":"0.0-6.0-2.0-1.10","screen_height":616,"screen_width":1280,"browser":"chrome","browser_version":"103.0.0","mobile":false,"os":"Windows 10","vsync_rate":61.26,"participant_id":"S00","prestimulus_duration":888,"correct":true,"type":"Zollner","illusion_strength":-42,"illusion_difference":-5,"block_number":3,"trial_number":11},{"rt":null,"stimulus":"<div style=\"font-size:60px;\">+</div>","response":null,"screen":"fixation","trial_type":"html-keyboard-response","trial_index":178,"time_elapsed":195817,"internal_node_id":"0.0-6.0-2.0-0.11","screen_height":616,"screen_width":1280,"browser":"chrome","browser_version":"103.0.0","mobile":false,"os":"Windows 10","vsync_rate":61.26,"participant_id":"S00","trial_duration":629},{"rt":995,"stimulus":"stimuli/Zollner_str-14.0_diff-2.5.png","response":"arrowleft","screen":"Trial","block":"Zollner","correct_response":"arrowleft","trial_type":"image-keyboard-response","trial_index":179,"time_elapsed":196814,"internal_node_id":"0.0-6.0-2.0-1.11","screen_height":616,"screen_width":1280,"browser":"chrome","browser_version":"103.0.0","mobile":false,"os":"Windows 10","vsync_rate":61.26,"participant_id":"S00","prestimulus_duration":641,"correct":true,"type":"Zollner","illusion_strength":-14,"illusion_difference":-2.5,"block_number":3,"trial_number":12},{"rt":null,"stimulus":"<div style=\"font-size:60px;\">+</div>","response":null,"screen":"fixation","trial_type":"html-keyboard-response","trial_index":180,"time_elapsed":197626,"internal_node_id":"0.0-6.0-2.0-0.12","screen_height":616,"screen_width":1280,"browser":"chrome","browser_version":"103.0.0","mobile":false,"os":"Windows 10","vsync_rate":61.26,"participant_id":"S00","trial_duration":807},{"rt":964,"stimulus":"stimuli/Zollner_str-70.0_diff5.0.png","response":"arrowright","screen":"Trial","block":"Zollner","correct_response":"arrowright","trial_type":"image-keyboard-response","trial_index":181,"time_elapsed":198591,"internal_node_id":"0.0-6.0-2.0-1.12","screen_height":616,"screen_width":1280,"browser":"chrome","browser_version":"103.0.0","mobile":false,"os":"Windows 10","vsync_rate":61.26,"participant_id":"S00","prestimulus_duration":812,"correct":true,"type":"Zollner","illusion_strength":-70,"illusion_difference":5,"block_number":3,"trial_number":13},{"rt":null,"stimulus":"<div style=\"font-size:60px;\">+</div>","response":null,"screen":"fixation","trial_type":"html-keyboard-response","trial_index":182,"time_elapsed":199537,"internal_node_id":"0.0-6.0-2.0-0.13","screen_height":616,"screen_width":1280,"browser":"chrome","browser_version":"103.0.0","mobile":false,"os":"Windows 10","vsync_rate":61.26,"participant_id":"S00","trial_duration":931},{"rt":1463,"stimulus":"stimuli/Zollner_str-42.0_diff2.5.png","response":"arrowright","screen":"Trial","block":"Zollner","correct_response":"arrowright","trial_type":"image-keyboard-response","trial_index":183,"time_elapsed":201001,"internal_node_id":"0.0-6.0-2.0-1.13","screen_height":616,"screen_width":1280,"browser":"chrome","browser_version":"103.0.0","mobile":false,"os":"Windows 10","vsync_rate":61.26,"participant_id":"S00","prestimulus_duration":946,"correct":true,"type":"Zollner","illusion_strength":-42,"illusion_difference":2.5,"block_number":3,"trial_number":14},{"rt":null,"stimulus":"<div style=\"font-size:60px;\">+</div>","response":null,"screen":"fixation","trial_type":"html-keyboard-response","trial_index":184,"time_elapsed":201458,"internal_node_id":"0.0-6.0-2.0-0.14","screen_height":616,"screen_width":1280,"browser":"chrome","browser_version":"103.0.0","mobile":false,"os":"Windows 10","vsync_rate":61.26,"participant_id":"S00","trial_duration":446},{"rt":763,"stimulus":"stimuli/Zollner_str42.0_diff1.0.png","response":"arrowright","screen":"Trial","block":"Zollner","correct_response":"arrowright","trial_type":"image-keyboard-response","trial_index":185,"time_elapsed":202222,"internal_node_id":"0.0-6.0-2.0-1.14","screen_height":616,"screen_width":1280,"browser":"chrome","browser_version":"103.0.0","mobile":false,"os":"Windows 10","vsync_rate":61.26,"participant_id":"S00","prestimulus_duration":457,"correct":true,"type":"Zollner","illusion_strength":42,"illusion_difference":1,"block_number":3,"trial_number":15},{"rt":null,"stimulus":"<div style=\"font-size:60px;\">+</div>","response":null,"screen":"fixation","trial_type":"html-keyboard-response","trial_index":186,"time_elapsed":202874,"internal_node_id":"0.0-6.0-2.0-0.15","screen_height":616,"screen_width":1280,"browser":"chrome","browser_version":"103.0.0","mobile":false,"os":"Windows 10","vsync_rate":61.26,"participant_id":"S00","trial_duration":649},{"rt":892,"stimulus":"stimuli/Zollner_str-14.0_diff-1.0.png","response":"arrowright","screen":"Trial","block":"Zollner","correct_response":"arrowleft","trial_type":"image-keyboard-response","trial_index":187,"time_elapsed":203767,"internal_node_id":"0.0-6.0-2.0-1.15","screen_height":616,"screen_width":1280,"browser":"chrome","browser_version":"103.0.0","mobile":false,"os":"Windows 10","vsync_rate":61.26,"participant_id":"S00","prestimulus_duration":652,"correct":false,"type":"Zollner","illusion_strength":-14,"illusion_difference":-1,"block_number":3,"trial_number":16},{"rt":null,"stimulus":"<div style=\"font-size:60px;\">+</div>","response":null,"screen":"fixation","trial_type":"html-keyboard-response","trial_index":188,"time_elapsed":204320,"internal_node_id":"0.0-6.0-2.0-0.16","screen_height":616,"screen_width":1280,"browser":"chrome","browser_version":"103.0.0","mobile":false,"os":"Windows 10","vsync_rate":61.26,"participant_id":"S00","trial_duration":546},{"rt":1097,"stimulus":"stimuli/Zollner_str-14.0_diff5.0.png","response":"arrowright","screen":"Trial","block":"Zollner","correct_response":"arrowright","trial_type":"image-keyboard-response","trial_index":189,"time_elapsed":205418,"internal_node_id":"0.0-6.0-2.0-1.16","screen_height":616,"screen_width":1280,"browser":"chrome","browser_version":"103.0.0","mobile":false,"os":"Windows 10","vsync_rate":61.26,"participant_id":"S00","prestimulus_duration":553,"correct":true,"type":"Zollner","illusion_strength":-14,"illusion_difference":5,"block_number":3,"trial_number":17},{"rt":null,"stimulus":"<div style=\"font-size:60px;\">+</div>","response":null,"screen":"fixation","trial_type":"html-keyboard-response","trial_index":190,"time_elapsed":205779,"internal_node_id":"0.0-6.0-2.0-0.17","screen_height":616,"screen_width":1280,"browser":"chrome","browser_version":"103.0.0","mobile":false,"os":"Windows 10","vsync_rate":61.26,"participant_id":"S00","trial_duration":353},{"rt":868,"stimulus":"stimuli/Zollner_str-70.0_diff1.0.png","response":"arrowright","screen":"Trial","block":"Zollner","correct_response":"arrowright","trial_type":"image-keyboard-response","trial_index":191,"time_elapsed":206648,"internal_node_id":"0.0-6.0-2.0-1.17","screen_height":616,"screen_width":1280,"browser":"chrome","browser_version":"103.0.0","mobile":false,"os":"Windows 10","vsync_rate":61.26,"participant_id":"S00","prestimulus_duration":361,"correct":true,"type":"Zollner","illusion_strength":-70,"illusion_difference":1,"block_number":3,"trial_number":18},{"rt":null,"stimulus":"<div style=\"font-size:60px;\">+</div>","response":null,"screen":"fixation","trial_type":"html-keyboard-response","trial_index":192,"time_elapsed":207314,"internal_node_id":"0.0-6.0-2.0-0.18","screen_height":616,"screen_width":1280,"browser":"chrome","browser_version":"103.0.0","mobile":false,"os":"Windows 10","vsync_rate":61.26,"participant_id":"S00","trial_duration":649},{"rt":743,"stimulus":"stimuli/Zollner_str14.0_diff-5.0.png","response":"arrowleft","screen":"Trial","block":"Zollner","correct_response":"arrowleft","trial_type":"image-keyboard-response","trial_index":193,"time_elapsed":208057,"internal_node_id":"0.0-6.0-2.0-1.18","screen_height":616,"screen_width":1280,"browser":"chrome","browser_version":"103.0.0","mobile":false,"os":"Windows 10","vsync_rate":61.26,"participant_id":"S00","prestimulus_duration":666,"correct":true,"type":"Zollner","illusion_strength":14,"illusion_difference":-5,"block_number":3,"trial_number":19},{"rt":null,"stimulus":"<div style=\"font-size:60px;\">+</div>","response":null,"screen":"fixation","trial_type":"html-keyboard-response","trial_index":194,"time_elapsed":209030,"internal_node_id":"0.0-6.0-2.0-0.19","screen_height":616,"screen_width":1280,"browser":"chrome","browser_version":"103.0.0","mobile":false,"os":"Windows 10","vsync_rate":61.26,"participant_id":"S00","trial_duration":970},{"rt":1272,"stimulus":"stimuli/Zollner_str-42.0_diff1.0.png","response":"arrowright","screen":"Trial","block":"Zollner","correct_response":"arrowright","trial_type":"image-keyboard-response","trial_index":195,"time_elapsed":210303,"internal_node_id":"0.0-6.0-2.0-1.19","screen_height":616,"screen_width":1280,"browser":"chrome","browser_version":"103.0.0","mobile":false,"os":"Windows 10","vsync_rate":61.26,"participant_id":"S00","prestimulus_duration":973,"correct":true,"type":"Zollner","illusion_strength":-42,"illusion_difference":1,"block_number":3,"trial_number":20},{"rt":null,"stimulus":"<div style=\"font-size:60px;\">+</div>","response":null,"screen":"fixation","trial_type":"html-keyboard-response","trial_index":196,"time_elapsed":210736,"internal_node_id":"0.0-6.0-2.0-0.20","screen_height":616,"screen_width":1280,"browser":"chrome","browser_version":"103.0.0","mobile":false,"os":"Windows 10","vsync_rate":61.26,"participant_id":"S00","trial_duration":422},{"rt":758,"stimulus":"stimuli/Zollner_str-14.0_diff-5.0.png","response":"arrowleft","screen":"Trial","block":"Zollner","correct_response":"arrowleft","trial_type":"image-keyboard-response","trial_index":197,"time_elapsed":211495,"internal_node_id":"0.0-6.0-2.0-1.20","screen_height":616,"screen_width":1280,"browser":"chrome","browser_version":"103.0.0","mobile":false,"os":"Windows 10","vsync_rate":61.26,"participant_id":"S00","prestimulus_duration":433,"correct":true,"type":"Zollner","illusion_strength":-14,"illusion_difference":-5,"block_number":3,"trial_number":21},{"rt":null,"stimulus":"<div style=\"font-size:60px;\">+</div>","response":null,"screen":"fixation","trial_type":"html-keyboard-response","trial_index":198,"time_elapsed":211929,"internal_node_id":"0.0-6.0-2.0-0.21","screen_height":616,"screen_width":1280,"browser":"chrome","browser_version":"103.0.0","mobile":false,"os":"Windows 10","vsync_rate":61.26,"participant_id":"S00","trial_duration":419},{"rt":943,"stimulus":"stimuli/Zollner_str14.0_diff1.0.png","response":"arrowright","screen":"Trial","block":"Zollner","correct_response":"arrowright","trial_type":"image-keyboard-response","trial_index":199,"time_elapsed":212881,"internal_node_id":"0.0-6.0-2.0-1.21","screen_height":616,"screen_width":1280,"browser":"chrome","browser_version":"103.0.0","mobile":false,"os":"Windows 10","vsync_rate":61.26,"participant_id":"S00","prestimulus_duration":434,"correct":true,"type":"Zollner","illusion_strength":14,"illusion_difference":1,"block_number":3,"trial_number":22},{"rt":null,"stimulus":"<div style=\"font-size:60px;\">+</div>","response":null,"screen":"fixation","trial_type":"html-keyboard-response","trial_index":200,"time_elapsed":213621,"internal_node_id":"0.0-6.0-2.0-0.22","screen_height":616,"screen_width":1280,"browser":"chrome","browser_version":"103.0.0","mobile":false,"os":"Windows 10","vsync_rate":61.26,"participant_id":"S00","trial_duration":735},{"rt":1025,"stimulus":"stimuli/Zollner_str-70.0_diff2.5.png","response":"arrowleft","screen":"Trial","block":"Zollner","correct_response":"arrowright","trial_type":"image-keyboard-response","trial_index":201,"time_elapsed":214647,"internal_node_id":"0.0-6.0-2.0-1.22","screen_height":616,"screen_width":1280,"browser":"chrome","browser_version":"103.0.0","mobile":false,"os":"Windows 10","vsync_rate":61.26,"participant_id":"S00","prestimulus_duration":740,"correct":false,"type":"Zollner","illusion_strength":-70,"illusion_difference":2.5,"block_number":3,"trial_number":23},{"rt":null,"stimulus":"<div style=\"font-size:60px;\">+</div>","response":null,"screen":"fixation","trial_type":"html-keyboard-response","trial_index":202,"time_elapsed":215607,"internal_node_id":"0.0-6.0-2.0-0.23","screen_height":616,"screen_width":1280,"browser":"chrome","browser_version":"103.0.0","mobile":false,"os":"Windows 10","vsync_rate":61.26,"participant_id":"S00","trial_duration":944},{"rt":1152,"stimulus":"stimuli/Zollner_str-42.0_diff-2.5.png","response":"arrowleft","screen":"Trial","block":"Zollner","correct_response":"arrowleft","trial_type":"image-keyboard-response","trial_index":203,"time_elapsed":216760,"internal_node_id":"0.0-6.0-2.0-1.23","screen_height":616