[{"success":true,"trial_type":"fullscreen","trial_index":0,"time_elapsed":3559,"internal_node_id":"0.0-0.0","screen_height":764,"screen_width":1601,"browser":"chrome","browser_version":"103.0.0","mobile":false,"os":"Windows 10","vsync_rate":59.99,"participant_id":"MAX_01"},{"width":1601,"height":764,"webaudio":true,"browser":"chrome","browser_version":"103.0.0","mobile":false,"os":"Windows 10","fullscreen":true,"vsync_rate":59.99,"webcam":true,"microphone":true,"screen":"browser_info","trial_type":"browser-check","trial_index":1,"time_elapsed":4567,"internal_node_id":"0.0-1.0","screen_height":764,"screen_width":1601,"participant_id":"MAX_01"},{"rt":26149,"response":{"Participant_ID":"MAX_01"},"screen":"participant_info","version":"1.0","date":"12/07/2022","time":"17:44:25","trial_type":"survey-text","trial_index":2,"time_elapsed":30720,"internal_node_id":"0.0-2.0","screen_height":764,"screen_width":1601,"browser":"chrome","browser_version":"103.0.0","mobile":false,"os":"Windows 10","vsync_rate":59.99,"participant_id":"MAX_01"},{"rt":17639,"stimulus":"<p><b>The Illusion Game</b></p><p>In this reaction-time game, you will need to be <b>as fast as possible</b> and make correct responses by resisting different visual illusions.</p><p>We will show you examples of each illusion before each block.</p><p>Remember, your goal is to be as <b>fast</b> and <b>accurate</b> as possible. Good luck!</p>","response":0,"screen":"general_instructions","trial_type":"html-button-response","trial_index":3,"time_elapsed":48361,"internal_node_id":"0.0-3.0","screen_height":764,"screen_width":1601,"browser":"chrome","browser_version":"103.0.0","mobile":false,"os":"Windows 10","vsync_rate":59.99,"participant_id":"MAX_01"},{"success":true,"timeout":false,"failed_images":[],"failed_audio":[],"failed_video":[],"trial_type":"preload","trial_index":4,"time_elapsed":48362,"internal_node_id":"0.0-4.0-0.0","screen_height":764,"screen_width":1601,"browser":"chrome","browser_version":"103.0.0","mobile":false,"os":"Windows 10","vsync_rate":59.99,"participant_id":"MAX_01"},{"rt":4191,"stimulus":"<p><b>Part 1</b></p><p>In this part, two red circles will appear side by side on the screen.</p><p>Your task is to select which <b>red circle is bigger</b> in size as fast as you can, without making errors.</p><p>Don't get distracted by the surrounding black circles around the red circles!</p><p>Press <b>the LEFT or the RIGHT arrow</b> to indicate where is the biggest <b>red circle.</b></p><div style='float: center'><img src='utils/stimuli_demo/Ebbinghaus_Demo.png' height='300'></img><p><img src='utils/answer/answer_leftright_keyboard.PNG' height='150'></img></p><p class='small'>In this example, the correct answer is the <b>LEFT arrow</b>.</p></div><p>Are you ready? <b>Press ENTER to start</b></p>","response":"enter","trial_type":"html-keyboard-response","trial_index":5,"time_elapsed":52554,"internal_node_id":"0.0-4.0-1.0","screen_height":764,"screen_width":1601,"browser":"chrome","browser_version":"103.0.0","mobile":false,"os":"Windows 10","vsync_rate":59.99,"participant_id":"MAX_01"},{"rt":null,"stimulus":"<div style=\"font-size:60px;\">+</div>","response":null,"screen":"fixation","trial_type":"html-keyboard-response","trial_index":6,"time_elapsed":53606,"internal_node_id":"0.0-4.0-2.0-0.0","screen_height":764,"screen_width":1601,"browser":"chrome","browser_version":"103.0.0","mobile":false,"os":"Windows 10","vsync_rate":59.99,"participant_id":"MAX_01","trial_duration":536},{"rt":887,"stimulus":"stimuli/Ebbinghaus_str-2.0_diff-0.44.png","response":"arrowright","screen":"Trial","block":"Ebbinghaus","correct_response":"arrowright","trial_type":"image-keyboard-response","trial_index":7,"time_elapsed":54500,"internal_node_id":"0.0-4.0-2.0-1.0","screen_height":764,"screen_width":1601,"browser":"chrome","browser_version":"103.0.0","mobile":false,"os":"Windows 10","vsync_rate":59.99,"participant_id":"MAX_01","prestimulus_duration":1052,"correct":true,"type":"Ebbinghaus","illusion_strength":-2,"illusion_difference":-0.4375,"block_number":1,"trial_number":1},{"rt":null,"stimulus":"<div style=\"font-size:60px;\">+</div>","response":null,"screen":"fixation","trial_type":"html-keyboard-response","trial_index":8,"time_elapsed":54892,"internal_node_id":"0.0-4.0-2.0-0.1","screen_height":764,"screen_width":1601,"browser":"chrome","browser_version":"103.0.0","mobile":false,"os":"Windows 10","vsync_rate":59.99,"participant_id":"MAX_01","trial_duration":382},{"rt":867,"stimulus":"stimuli/Ebbinghaus_str0.4_diff-1.0.png","response":"arrowright","screen":"Trial","block":"Ebbinghaus","correct_response":"arrowright","trial_type":"image-keyboard-response","trial_index":9,"time_elapsed":55761,"internal_node_id":"0.0-4.0-2.0-1.1","screen_height":764,"screen_width":1601,"browser":"chrome","browser_version":"103.0.0","mobile":false,"os":"Windows 10","vsync_rate":59.99,"participant_id":"MAX_01","prestimulus_duration":392,"correct":true,"type":"Ebbinghaus","illusion_strength":0.40000000000000036,"illusion_difference":-1.0000000000000002,"block_number":1,"trial_number":2},{"rt":null,"stimulus":"<div style=\"font-size:60px;\">+</div>","response":null,"screen":"fixation","trial_type":"html-keyboard-response","trial_index":10,"time_elapsed":56106,"internal_node_id":"0.0-4.0-2.0-0.2","screen_height":764,"screen_width":1601,"browser":"chrome","browser_version":"103.0.0","mobile":false,"os":"Windows 10","vsync_rate":59.99,"participant_id":"MAX_01","trial_duration":331},{"rt":816,"stimulus":"stimuli/Ebbinghaus_str-0.4_diff0.44.png","response":"arrowleft","screen":"Trial","block":"Ebbinghaus","correct_response":"arrowleft","trial_type":"image-keyboard-response","trial_index":11,"time_elapsed":56923,"internal_node_id":"0.0-4.0-2.0-1.2","screen_height":764,"screen_width":1601,"browser":"chrome","browser_version":"103.0.0","mobile":false,"os":"Windows 10","vsync_rate":59.99,"participant_id":"MAX_01","prestimulus_duration":345,"correct":true,"type":"Ebbinghaus","illusion_strength":-0.3999999999999999,"illusion_difference":0.4375,"block_number":1,"trial_number":3},{"rt":null,"stimulus":"<div style=\"font-size:60px;\">+</div>","response":null,"screen":"fixation","trial_type":"html-keyboard-response","trial_index":12,"time_elapsed":57827,"internal_node_id":"0.0-4.0-2.0-0.3","screen_height":764,"screen_width":1601,"browser":"chrome","browser_version":"103.0.0","mobile":false,"os":"Windows 10","vsync_rate":59.99,"participant_id":"MAX_01","trial_duration":898},{"rt":702,"stimulus":"stimuli/Ebbinghaus_str2.0_diff-1.0.png","response":"arrowright","screen":"Trial","block":"Ebbinghaus","correct_response":"arrowright","trial_type":"image-keyboard-response","trial_index":13,"time_elapsed":58532,"internal_node_id":"0.0-4.0-2.0-1.3","screen_height":764,"screen_width":1601,"browser":"chrome","browser_version":"103.0.0","mobile":false,"os":"Windows 10","vsync_rate":59.99,"participant_id":"MAX_01","prestimulus_duration":904,"correct":true,"type":"Ebbinghaus","illusion_strength":2,"illusion_difference":-1.0000000000000002,"block_number":1,"trial_number":4},{"rt":null,"stimulus":"<div style=\"font-size:60px;\">+</div>","response":null,"screen":"fixation","trial_type":"html-keyboard-response","trial_index":14,"time_elapsed":59075,"internal_node_id":"0.0-4.0-2.0-0.4","screen_height":764,"screen_width":1601,"browser":"chrome","browser_version":"103.0.0","mobile":false,"os":"Windows 10","vsync_rate":59.99,"participant_id":"MAX_01","trial_duration":533},{"rt":788,"stimulus":"stimuli/Ebbinghaus_str-2.0_diff-1.0.png","response":"arrowright","screen":"Trial","block":"Ebbinghaus","correct_response":"arrowright","trial_type":"image-keyboard-response","trial_index":15,"time_elapsed":59866,"internal_node_id":"0.0-4.0-2.0-1.4","screen_height":764,"screen_width":1601,"browser":"chrome","browser_version":"103.0.0","mobile":false,"os":"Windows 10","vsync_rate":59.99,"participant_id":"MAX_01","prestimulus_duration":543,"correct":true,"type":"Ebbinghaus","illusion_strength":-2,"illusion_difference":-1.0000000000000002,"block_number":1,"trial_number":5},{"rt":null,"stimulus":"<div style=\"font-size:60px;\">+</div>","response":null,"screen":"fixation","trial_type":"html-keyboard-response","trial_index":16,"time_elapsed":60784,"internal_node_id":"0.0-4.0-2.0-0.5","screen_height":764,"screen_width":1601,"browser":"chrome","browser_version":"103.0.0","mobile":false,"os":"Windows 10","vsync_rate":59.99,"participant_id":"MAX_01","trial_duration":917},{"rt":679,"stimulus":"stimuli/Ebbinghaus_str1.2_diff0.44.png","response":"arrowleft","screen":"Trial","block":"Ebbinghaus","correct_response":"arrowleft","trial_type":"image-keyboard-response","trial_index":17,"time_elapsed":61465,"internal_node_id":"0.0-4.0-2.0-1.5","screen_height":764,"screen_width":1601,"browser":"chrome","browser_version":"103.0.0","mobile":false,"os":"Windows 10","vsync_rate":59.99,"participant_id":"MAX_01","prestimulus_duration":918,"correct":true,"type":"Ebbinghaus","illusion_strength":1.2000000000000002,"illusion_difference":0.4375,"block_number":1,"trial_number":6},{"rt":null,"stimulus":"<div style=\"font-size:60px;\">+</div>","response":null,"screen":"fixation","trial_type":"html-keyboard-response","trial_index":18,"time_elapsed":62465,"internal_node_id":"0.0-4.0-2.0-0.6","screen_height":764,"screen_width":1601,"browser":"chrome","browser_version":"103.0.0","mobile":false,"os":"Windows 10","vsync_rate":59.99,"participant_id":"MAX_01","trial_duration":989},{"rt":710,"stimulus":"stimuli/Ebbinghaus_str-2.0_diff1.0.png","response":"arrowleft","screen":"Trial","block":"Ebbinghaus","correct_response":"arrowleft","trial_type":"image-keyboard-response","trial_index":19,"time_elapsed":63177,"internal_node_id":"0.0-4.0-2.0-1.6","screen_height":764,"screen_width":1601,"browser":"chrome","browser_version":"103.0.0","mobile":false,"os":"Windows 10","vsync_rate":59.99,"participant_id":"MAX_01","prestimulus_duration":1000,"correct":true,"type":"Ebbinghaus","illusion_strength":-2,"illusion_difference":1.0000000000000002,"block_number":1,"trial_number":7},{"rt":null,"stimulus":"<div style=\"font-size:60px;\">+</div>","response":null,"screen":"fixation","trial_type":"html-keyboard-response","trial_index":20,"time_elapsed":63631,"internal_node_id":"0.0-4.0-2.0-0.7","screen_height":764,"screen_width":1601,"browser":"chrome","browser_version":"103.0.0","mobile":false,"os":"Windows 10","vsync_rate":59.99,"participant_id":"MAX_01","trial_duration":447},{"rt":729,"stimulus":"stimuli/Ebbinghaus_str-2.0_diff-0.1.png","response":"arrowright","screen":"Trial","block":"Ebbinghaus","correct_response":"arrowright","trial_type":"image-keyboard-response","trial_index":21,"time_elapsed":64362,"internal_node_id":"0.0-4.0-2.0-1.7","screen_height":764,"screen_width":1601,"browser":"chrome","browser_version":"103.0.0","mobile":false,"os":"Windows 10","vsync_rate":59.99,"participant_id":"MAX_01","prestimulus_duration":454,"correct":true,"type":"Ebbinghaus","illusion_strength":-2,"illusion_difference":-0.1,"block_number":1,"trial_number":8},{"rt":null,"stimulus":"<div style=\"font-size:60px;\">+</div>","response":null,"screen":"fixation","trial_type":"html-keyboard-response","trial_index":22,"time_elapsed":65002,"internal_node_id":"0.0-4.0-2.0-0.8","screen_height":764,"screen_width":1601,"browser":"chrome","browser_version":"103.0.0","mobile":false,"os":"Windows 10","vsync_rate":59.99,"participant_id":"MAX_01","trial_duration":637},{"rt":911,"stimulus":"stimuli/Ebbinghaus_str0.4_diff-0.44.png","response":"arrowright","screen":"Trial","block":"Ebbinghaus","correct_response":"arrowright","trial_type":"image-keyboard-response","trial_index":23,"time_elapsed":65915,"internal_node_id":"0.0-4.0-2.0-1.8","screen_height":764,"screen_width":1601,"browser":"chrome","browser_version":"103.0.0","mobile":false,"os":"Windows 10","vsync_rate":59.99,"participant_id":"MAX_01","prestimulus_duration":640,"correct":true,"type":"Ebbinghaus","illusion_strength":0.40000000000000036,"illusion_difference":-0.4375,"block_number":1,"trial_number":9},{"rt":null,"stimulus":"<div style=\"font-size:60px;\">+</div>","response":null,"screen":"fixation","trial_type":"html-keyboard-response","trial_index":24,"time_elapsed":66209,"internal_node_id":"0.0-4.0-2.0-0.9","screen_height":764,"screen_width":1601,"browser":"chrome","browser_version":"103.0.0","mobile":false,"os":"Windows 10","vsync_rate":59.99,"participant_id":"MAX_01","trial_duration":272},{"rt":826,"stimulus":"stimuli/Ebbinghaus_str-0.4_diff-0.1.png","response":"arrowleft","screen":"Trial","block":"Ebbinghaus","correct_response":"arrowright","trial_type":"image-keyboard-response","trial_index":25,"time_elapsed":67035,"internal_node_id":"0.0-4.0-2.0-1.9","screen_height":764,"screen_width":1601,"browser":"chrome","browser_version":"103.0.0","mobile":false,"os":"Windows 10","vsync_rate":59.99,"participant_id":"MAX_01","prestimulus_duration":294,"correct":false,"type":"Ebbinghaus","illusion_strength":-0.3999999999999999,"illusion_difference":-0.1,"block_number":1,"trial_number":10},{"rt":null,"stimulus":"<div style=\"font-size:60px;\">+</div>","response":null,"screen":"fixation","trial_type":"html-keyboard-response","trial_index":26,"time_elapsed":67957,"internal_node_id":"0.0-4.0-2.0-0.10","screen_height":764,"screen_width":1601,"browser":"chrome","browser_version":"103.0.0","mobile":false,"os":"Windows 10","vsync_rate":59.99,"participant_id":"MAX_01","trial_duration":903},{"rt":685,"stimulus":"stimuli/Ebbinghaus_str2.0_diff-0.44.png","response":"arrowright","screen":"Trial","block":"Ebbinghaus","correct_response":"arrowright","trial_type":"image-keyboard-response","trial_index":27,"time_elapsed":68643,"internal_node_id":"0.0-4.0-2.0-1.10","screen_height":764,"screen_width":1601,"browser":"chrome","browser_version":"103.0.0","mobile":false,"os":"Windows 10","vsync_rate":59.99,"participant_id":"MAX_01","prestimulus_duration":922,"correct":true,"type":"Ebbinghaus","illusion_strength":2,"illusion_difference":-0.4375,"block_number":1,"trial_number":11},{"rt":null,"stimulus":"<div style=\"font-size:60px;\">+</div>","response":null,"screen":"fixation","trial_type":"html-keyboard-response","trial_index":28,"time_elapsed":69040,"internal_node_id":"0.0-4.0-2.0-0.11","screen_height":764,"screen_width":1601,"browser":"chrome","browser_version":"103.0.0","mobile":false,"os":"Windows 10","vsync_rate":59.99,"participant_id":"MAX_01","trial_duration":385},{"rt":984,"stimulus":"stimuli/Ebbinghaus_str1.2_diff-0.44.png","response":"arrowright","screen":"Trial","block":"Ebbinghaus","correct_response":"arrowright","trial_type":"image-keyboard-response","trial_index":29,"time_elapsed":70025,"internal_node_id":"0.0-4.0-2.0-1.11","screen_height":764,"screen_width":1601,"browser":"chrome","browser_version":"103.0.0","mobile":false,"os":"Windows 10","vsync_rate":59.99,"participant_id":"MAX_01","prestimulus_duration":397,"correct":true,"type":"Ebbinghaus","illusion_strength":1.2000000000000002,"illusion_difference":-0.4375,"block_number":1,"trial_number":12},{"rt":null,"stimulus":"<div style=\"font-size:60px;\">+</div>","response":null,"screen":"fixation","trial_type":"html-keyboard-response","trial_index":30,"time_elapsed":70979,"internal_node_id":"0.0-4.0-2.0-0.12","screen_height":764,"screen_width":1601,"browser":"chrome","browser_version":"103.0.0","mobile":false,"os":"Windows 10","vsync_rate":59.99,"participant_id":"MAX_01","trial_duration":945},{"rt":741,"stimulus":"stimuli/Ebbinghaus_str-1.2_diff-0.44.png","response":"arrowright","screen":"Trial","block":"Ebbinghaus","correct_response":"arrowright","trial_type":"image-keyboard-response","trial_index":31,"time_elapsed":71721,"internal_node_id":"0.0-4.0-2.0-1.12","screen_height":764,"screen_width":1601,"browser":"chrome","browser_version":"103.0.0","mobile":false,"os":"Windows 10","vsync_rate":59.99,"participant_id":"MAX_01","prestimulus_duration":954,"correct":true,"type":"Ebbinghaus","illusion_strength":-1.2,"illusion_difference":-0.4375,"block_number":1,"trial_number":13},{"rt":null,"stimulus":"<div style=\"font-size:60px;\">+</div>","response":null,"screen":"fixation","trial_type":"html-keyboard-response","trial_index":32,"time_elapsed":72334,"internal_node_id":"0.0-4.0-2.0-0.13","screen_height":764,"screen_width":1601,"browser":"chrome","browser_version":"103.0.0","mobile":false,"os":"Windows 10","vsync_rate":59.99,"participant_id":"MAX_01","trial_duration":602},{"rt":811,"stimulus":"stimuli/Ebbinghaus_str2.0_diff0.44.png","response":"arrowleft","screen":"Trial","block":"Ebbinghaus","correct_response":"arrowleft","trial_type":"image-keyboard-response","trial_index":33,"time_elapsed":73146,"internal_node_id":"0.0-4.0-2.0-1.13","screen_height":764,"screen_width":1601,"browser":"chrome","browser_version":"103.0.0","mobile":false,"os":"Windows 10","vsync_rate":59.99,"participant_id":"MAX_01","prestimulus_duration":613,"correct":true,"type":"Ebbinghaus","illusion_strength":2,"illusion_difference":0.4375,"block_number":1,"trial_number":14},{"rt":null,"stimulus":"<div style=\"font-size:60px;\">+</div>","response":null,"screen":"fixation","trial_type":"html-keyboard-response","trial_index":34,"time_elapsed":73549,"internal_node_id":"0.0-4.0-2.0-0.14","screen_height":764,"screen_width":1601,"browser":"chrome","browser_version":"103.0.0","mobile":false,"os":"Windows 10","vsync_rate":59.99,"participant_id":"MAX_01","trial_duration":401},{"rt":1091,"stimulus":"stimuli/Ebbinghaus_str0.4_diff0.1.png","response":"arrowleft","screen":"Trial","block":"Ebbinghaus","correct_response":"arrowleft","trial_type":"image-keyboard-response","trial_index":35,"time_elapsed":74643,"internal_node_id":"0.0-4.0-2.0-1.14","screen_height":764,"screen_width":1601,"browser":"chrome","browser_version":"103.0.0","mobile":false,"os":"Windows 10","vsync_rate":59.99,"participant_id":"MAX_01","prestimulus_duration":403,"correct":true,"type":"Ebbinghaus","illusion_strength":0.40000000000000036,"illusion_difference":0.1,"block_number":1,"trial_number":15},{"rt":null,"stimulus":"<div style=\"font-size:60px;\">+</div>","response":null,"screen":"fixation","trial_type":"html-keyboard-response","trial_index":36,"time_elapsed":75185,"internal_node_id":"0.0-4.0-2.0-0.15","screen_height":764,"screen_width":1601,"browser":"chrome","browser_version":"103.0.0","mobile":false,"os":"Windows 10","vsync_rate":59.99,"participant_id":"MAX_01","trial_duration":529},{"rt":759,"stimulus":"stimuli/Ebbinghaus_str0.4_diff-0.1.png","response":"arrowright","screen":"Trial","block":"Ebbinghaus","correct_response":"arrowright","trial_type":"image-keyboard-response","trial_index":37,"time_elapsed":75946,"internal_node_id":"0.0-4.0-2.0-1.15","screen_height":764,"screen_width":1601,"browser":"chrome","browser_version":"103.0.0","mobile":false,"os":"Windows 10","vsync_rate":59.99,"participant_id":"MAX_01","prestimulus_duration":542,"correct":true,"type":"Ebbinghaus","illusion_strength":0.40000000000000036,"illusion_difference":-0.1,"block_number":1,"trial_number":16},{"rt":null,"stimulus":"<div style=\"font-size:60px;\">+</div>","response":null,"screen":"fixation","trial_type":"html-keyboard-response","trial_index":38,"time_elapsed":76560,"internal_node_id":"0.0-4.0-2.0-0.16","screen_height":764,"screen_width":1601,"browser":"chrome","browser_version":"103.0.0","mobile":false,"os":"Windows 10","vsync_rate":59.99,"participant_id":"MAX_01","trial_duration":609},{"rt":866,"stimulus":"stimuli/Ebbinghaus_str-0.4_diff0.1.png","response":"arrowleft","screen":"Trial","block":"Ebbinghaus","correct_response":"arrowleft","trial_type":"image-keyboard-response","trial_index":39,"time_elapsed":77427,"internal_node_id":"0.0-4.0-2.0-1.16","screen_height":764,"screen_width":1601,"browser":"chrome","browser_version":"103.0.0","mobile":false,"os":"Windows 10","vsync_rate":59.99,"participant_id":"MAX_01","prestimulus_duration":614,"correct":true,"type":"Ebbinghaus","illusion_strength":-0.3999999999999999,"illusion_difference":0.1,"block_number":1,"trial_number":17},{"rt":null,"stimulus":"<div style=\"font-size:60px;\">+</div>","response":null,"screen":"fixation","trial_type":"html-keyboard-response","trial_index":40,"time_elapsed":78074,"internal_node_id":"0.0-4.0-2.0-0.17","screen_height":764,"screen_width":1601,"browser":"chrome","browser_version":"103.0.0","mobile":false,"os":"Windows 10","vsync_rate":59.99,"participant_id":"MAX_01","trial_duration":631},{"rt":733,"stimulus":"stimuli/Ebbinghaus_str-0.4_diff-1.0.png","response":"arrowright","screen":"Trial","block":"Ebbinghaus","correct_response":"arrowright","trial_type":"image-keyboard-response","trial_index":41,"time_elapsed":78809,"internal_node_id":"0.0-4.0-2.0-1.17","screen_height":764,"screen_width":1601,"browser":"chrome","browser_version":"103.0.0","mobile":false,"os":"Windows 10","vsync_rate":59.99,"participant_id":"MAX_01","prestimulus_duration":647,"correct":true,"type":"Ebbinghaus","illusion_strength":-0.3999999999999999,"illusion_difference":-1.0000000000000002,"block_number":1,"trial_number":18},{"rt":null,"stimulus":"<div style=\"font-size:60px;\">+</div>","response":null,"screen":"fixation","trial_type":"html-keyboard-response","trial_index":42,"time_elapsed":79432,"internal_node_id":"0.0-4.0-2.0-0.18","screen_height":764,"screen_width":1601,"browser":"chrome","browser_version":"103.0.0","mobile":false,"os":"Windows 10","vsync_rate":59.99,"participant_id":"MAX_01","trial_duration":620},{"rt":1223,"stimulus":"stimuli/Ebbinghaus_str1.2_diff-1.0.png","response":"arrowright","screen":"Trial","block":"Ebbinghaus","correct_response":"arrowright","trial_type":"image-keyboard-response","trial_index":43,"time_elapsed":80657,"internal_node_id":"0.0-4.0-2.0-1.18","screen_height":764,"screen_width":1601,"browser":"chrome","browser_version":"103.0.0","mobile":false,"os":"Windows 10","vsync_rate":59.99,"participant_id":"MAX_01","prestimulus_duration":623,"correct":true,"type":"Ebbinghaus","illusion_strength":1.2000000000000002,"illusion_difference":-1.0000000000000002,"block_number":1,"trial_number":19},{"rt":null,"stimulus":"<div style=\"font-size:60px;\">+</div>","response":null,"screen":"fixation","trial_type":"html-keyboard-response","trial_index":44,"time_elapsed":81462,"internal_node_id":"0.0-4.0-2.0-0.19","screen_height":764,"screen_width":1601,"browser":"chrome","browser_version":"103.0.0","mobile":false,"os":"Windows 10","vsync_rate":59.99,"participant_id":"MAX_01","trial_duration":801},{"rt":754,"stimulus":"stimuli/Ebbinghaus_str-1.2_diff1.0.png","response":"arrowleft","screen":"Trial","block":"Ebbinghaus","correct_response":"arrowleft","trial_type":"image-keyboard-response","trial_index":45,"time_elapsed":82217,"internal_node_id":"0.0-4.0-2.0-1.19","screen_height":764,"screen_width":1601,"browser":"chrome","browser_version":"103.0.0","mobile":false,"os":"Windows 10","vsync_rate":59.99,"participant_id":"MAX_01","prestimulus_duration":805,"correct":true,"type":"Ebbinghaus","illusion_strength":-1.2,"illusion_difference":1.0000000000000002,"block_number":1,"trial_number":20},{"rt":null,"stimulus":"<div style=\"font-size:60px;\">+</div>","response":null,"screen":"fixation","trial_type":"html-keyboard-response","trial_index":46,"time_elapsed":83064,"internal_node_id":"0.0-4.0-2.0-0.20","screen_height":764,"screen_width":1601,"browser":"chrome","browser_version":"103.0.0","mobile":false,"os":"Windows 10","vsync_rate":59.99,"participant_id":"MAX_01","trial_duration":839},{"rt":737,"stimulus":"stimuli/Ebbinghaus_str-1.2_diff0.44.png","response":"arrowleft","screen":"Trial","block":"Ebbinghaus","correct_response":"arrowleft","trial_type":"image-keyboard-response","trial_index":47,"time_elapsed":83801,"internal_node_id":"0.0-4.0-2.0-1.20","screen_height":764,"screen_width":1601,"browser":"chrome","browser_version":"103.0.0","mobile":false,"os":"Windows 10","vsync_rate":59.99,"participant_id":"MAX_01","prestimulus_duration":847,"correct":true,"type":"Ebbinghaus","illusion_strength":-1.2,"illusion_difference":0.4375,"block_number":1,"trial_number":21},{"rt":null,"stimulus":"<div style=\"font-size:60px;\">+</div>","response":null,"screen":"fixation","trial_type":"html-keyboard-response","trial_index":48,"time_elapsed":84457,"internal_node_id":"0.0-4.0-2.0-0.21","screen_height":764,"screen_width":1601,"browser":"chrome","browser_version":"103.0.0","mobile":false,"os":"Windows 10","vsync_rate":59.99,"participant_id":"MAX_01","trial_duration":647},{"rt":679,"stimulus":"stimuli/Ebbinghaus_str-1.2_diff-1.0.png","response":"arrowright","screen":"Trial","block":"Ebbinghaus","correct_response":"arrowright","trial_type":"image-keyboard-response","trial_index":49,"time_elapsed":85137,"internal_node_id":"0.0-4.0-2.0-1.21","screen_height":764,"screen_width":1601,"browser":"chrome","browser_version":"103.0.0","mobile":false,"os":"Windows 10","vsync_rate":59.99,"participant_id":"MAX_01","prestimulus_duration":656,"correct":true,"type":"Ebbinghaus","illusion_strength":-1.2,"illusion_difference":-1.0000000000000002,"block_number":1,"trial_number":22},{"rt":null,"stimulus":"<div style=\"font-size:60px;\">+</div>","response":null,"screen":"fixation","trial_type":"html-keyboard-response","trial_index":50,"time_elapsed":85802,"internal_node_id":"0.0-4.0-2.0-0.22","screen_height":764,"screen_width":1601,"browser":"chrome","browser_version":"103.0.0","mobile":false,"os":"Windows 10","vsync_rate":59.99,"participant_id":"MAX_01","trial_duration":662},{"rt":742,"stimulus":"stimuli/Ebbinghaus_str1.2_diff0.1.png","response":"arrowleft","screen":"Trial","block":"Ebbinghaus","correct_response":"arrowleft","trial_type":"image-keyboard-response","trial_index":51,"time_elapsed":86545,"internal_node_id":"0.0-4.0-2.0-1.22","screen_height":764,"screen_width":1601,"browser":"chrome","browser_version":"103.0.0","mobile":false,"os":"Windows 10","vsync_rate":59.99,"participant_id":"MAX_01","prestimulus_duration":665,"correct":true,"type":"Ebbinghaus","illusion_strength":1.2000000000000002,"illusion_difference":0.1,"block_number":1,"trial_number":23},{"rt":null,"stimulus":"<div style=\"font-size:60px;\">+</div>","response":null,"screen":"fixation","trial_type":"html-keyboard-response","trial_index":52,"time_elapsed":87162,"internal_node_id":"0.0-4.0-2.0-0.23","screen_height":764,"screen_width":1601,"browser":"chrome","browser_version":"103.0.0","mobile":false,"os":"Windows 10","vsync_rate":59.99,"participant_id":"MAX_01","trial_duration":614},{"rt":712,"stimulus":"stimuli/Ebbinghaus_str0.4_diff1.0.png","response":"arrowleft","screen":"Trial","block":"Ebbinghaus","correct_response":"arrowleft","trial_type":"image-keyboard-response","trial_index":53,"time_elapsed":87875,"internal_node_id":"0.0-4.0-2.0-1.23","screen_height":764,"screen_width":1601,"browser":"chrome","browser_version":"103.0.0","mobile":false,"os":"Windows 10","vsync_rate":59.99,"participant_id":"MAX_01","prestimulus_duration":617,"correct":true,"type":"Ebbinghaus","illusion_strength":0.40000000000000036,"illusion_difference":1.0000000000000002,"block_number":1,"trial_number":24},{"rt":null,"stimulus":"<div style=\"font-size:60px;\">+</div>","response":null,"screen":"fixation","trial_type":"html-keyboard-response","trial_index":54,"time_elapsed":88734,"internal_node_id":"0.0-4.0-2.0-0.24","screen_height":764,"screen_width":1601,"browser":"chrome","browser_version":"103.0.0","mobile":false,"os":"Windows 10","vsync_rate":59.99,"participant_id":"MAX_01","trial_duration":849},{"rt":786,"stimulus":"stimuli/Ebbinghaus_str-2.0_diff0.1.png","response":"arrowleft","screen":"Trial","block":"Ebbinghaus","correct_response":"arrowleft","trial_type":"image-keyboard-response","trial_index":55,"time_elapsed":89521,"internal_node_id":"0.0-4.0-2.0-1.24","screen_height":764,"screen_width":1601,"browser":"chrome","browser_version":"103.0.0","mobile":false,"os":"Windows 10","vsync_rate":59.99,"participant_id":"MAX_01","prestimulus_duration":859,"correct":true,"type":"Ebbinghaus","illusion_strength":-2,"illusion_difference":0.1,"block_number":1,"trial_number":25},{"rt":null,"stimulus":"<div style=\"font-size:60px;\">+</div>","response":null,"screen":"fixation","trial_type":"html-keyboard-response","trial_index":56,"time_elapsed":89975,"internal_node_id":"0.0-4.0-2.0-0.25","screen_height":764,"screen_width":1601,"browser":"chrome","browser_version":"103.0.0","mobile":false,"os":"Windows 10","vsync_rate":59.99,"participant_id":"MAX_01","trial_duration":449},{"rt":795,"stimulus":"stimuli/Ebbinghaus_str-1.2_diff-0.1.png","response":"arrowright","screen":"Trial","block":"Ebbinghaus","correct_response":"arrowright","trial_type":"image-keyboard-response","trial_index":57,"time_elapsed":90770,"internal_node_id":"0.0-4.0-2.0-1.25","screen_height":764,"screen_width":1601,"browser":"chrome","browser_version":"103.0.0","mobile":false,"os":"Windows 10","vsync_rate":59.99,"participant_id":"MAX_01","prestimulus_duration":454,"correct":true,"type":"Ebbinghaus","illusion_strength":-1.2,"illusion_difference":-0.1,"block_number":1,"trial_number":26},{"rt":null,"stimulus":"<div style=\"font-size:60px;\">+</div>","response":null,"screen":"fixation","trial_type":"html-keyboard-response","trial_index":58,"time_elapsed":91523,"internal_node_id":"0.0-4.0-2.0-0.26","screen_height":764,"screen_width":1601,"browser":"chrome","browser_version":"103.0.0","mobile":false,"os":"Windows 10","vsync_rate":59.99,"participant_id":"MAX_01","trial_duration":738},{"rt":724,"stimulus":"stimuli/Ebbinghaus_str2.0_diff1.0.png","response":"arrowleft","screen":"Trial","block":"Ebbinghaus","correct_response":"arrowleft","trial_type":"image-keyboard-response","trial_index":59,"time_elapsed":92249,"internal_node_id":"0.0-4.0-2.0-1.26","screen_height":764,"screen_width":1601,"browser":"chrome","browser_version":"103.0.0","mobile":false,"os":"Windows 10","vsync_rate":59.99,"participant_id":"MAX_01","prestimulus_duration":753,"correct":true,"type":"Ebbinghaus","illusion_strength":2,"illusion_difference":1.0000000000000002,"block_number":1,"trial_number":27},{"rt":null,"stimulus":"<div style=\"font-size:60px;\">+</div>","response":null,"screen":"fixation","trial_type":"html-keyboard-response","trial_index":60,"time_elapsed":92534,"internal_node_id":"0.0-4.0-2.0-0.27","screen_height":764,"screen_width":1601,"browser":"chrome","browser_version":"103.0.0","mobile":false,"os":"Windows 10","vsync_rate":59.99,"participant_id":"MAX_01","trial_duration":275},{"rt":1235,"stimulus":"stimuli/Ebbinghaus_str1.2_diff-0.1.png","response":"arrowleft","screen":"Trial","block":"Ebbinghaus","correct_response":"arrowright","trial_type":"image-keyboard-response","trial_index":61,"time_elapsed":93771,"internal_node_id":"0.0-4.0-2.0-1.27","screen_height":764,"screen_width":1601,"browser":"chrome","browser_version":"103.0.0","mobile":false,"os":"Windows 10","vsync_rate":59.99,"participant_id":"MAX_01","prestimulus_duration":285,"correct":false,"type":"Ebbinghaus","illusion_strength":1.2000000000000002,"illusion_difference":-0.1,"block_number":1,"trial_number":28},{"rt":null,"stimulus":"<div style=\"font-size:60px;\">+</div>","response":null,"screen":"fixation","trial_type":"html-keyboard-response","trial_index":62,"time_elapsed":94746,"internal_node_id":"0.0-4.0-2.0-0.28","screen_height":764,"screen_width":1601,"browser":"chrome","browser_version":"103.0.0","mobile":false,"os":"Windows 10","vsync_rate":59.99,"participant_id":"MAX_01","trial_duration":971},{"rt":758,"stimulus":"stimuli/Ebbinghaus_str-0.4_diff1.0.png","response":"arrowleft","screen":"Trial","block":"Ebbinghaus","correct_response":"arrowleft","trial_type":"image-keyboard-response","trial_index":63,"time_elapsed":95505,"internal_node_id":"0.0-4.0-2.0-1.28","screen_height":764,"screen_width":1601,"browser":"chrome","browser_version":"103.0.0","mobile":false,"os":"Windows 10","vsync_rate":59.99,"participant_id":"MAX_01","prestimulus_duration":975,"correct":true,"type":"Ebbinghaus","illusion_strength":-0.3999999999999999,"illusion_difference":1.0000000000000002,"block_number":1,"trial_number":29},{"rt":null,"stimulus":"<div style=\"font-size:60px;\">+</div>","response":null,"screen":"fixation","trial_type":"html-keyboard-response","trial_index":64,"time_elapsed":96163,"internal_node_id":"0.0-4.0-2.0-0.29","screen_height":764,"screen_width":1601,"browser":"chrome","browser_version":"103.0.0","mobile":false,"os":"Windows 10","vsync_rate":59.99,"participant_id":"MAX_01","trial_duration":646},{"rt":1588,"stimulus":"stimuli/Ebbinghaus_str0.4_diff0.44.png","response":"arrowleft","screen":"Trial","block":"Ebbinghaus","correct_response":"arrowleft","trial_type":"image-keyboard-response","trial_index":65,"time_elapsed":97753,"internal_node_id":"0.0-4.0-2.0-1.29","screen_height":764,"screen_width":1601,"browser":"chrome","browser_version":"103.0.0","mobile":false,"os":"Windows 10","vsync_rate":59.99,"participant_id":"MAX_01","prestimulus_duration":658,"correct":true,"type":"Ebbinghaus","illusion_strength":0.40000000000000036,"illusion_difference":0.4375,"block_number":1,"trial_number":30},{"rt":null,"stimulus":"<div style=\"font-size:60px;\">+</div>","response":null,"screen":"fixation","trial_type":"html-keyboard-response","trial_index":66,"time_elapsed":98260,"internal_node_id":"0.0-4.0-2.0-0.30","screen_height":764,"screen_width":1601,"browser":"chrome","browser_version":"103.0.0","mobile":false,"os":"Windows 10","vsync_rate":59.99,"participant_id":"MAX_01","trial_duration":496},{"rt":830,"stimulus":"stimuli/Ebbinghaus_str-1.2_diff0.1.png","response":"arrowleft","screen":"Trial","block":"Ebbinghaus","correct_response":"arrowleft","trial_type":"image-keyboard-response","trial_index":67,"time_elapsed":99090,"internal_node_id":"0.0-4.0-2.0-1.30","screen_height":764,"screen_width":1601,"browser":"chrome","browser_version":"103.0.0","mobile":false,"os":"Windows 10","vsync_rate":59.99,"participant_id":"MAX_01","prestimulus_duration":507,"correct":true,"type":"Ebbinghaus","illusion_strength":-1.2,"illusion_difference":0.1,"block_number":1,"trial_number":31},{"rt":null,"stimulus":"<div style=\"font-size:60px;\">+</div>","response":null,"screen":"fixation","trial_type":"html-keyboard-response","trial_index":68,"time_elapsed":99583,"internal_node_id":"0.0-4.0-2.0-0.31","screen_height":764,"screen_width":1601,"browser":"chrome","browser_version":"103.0.0","mobile":false,"os":"Windows 10","vsync_rate":59.99,"participant_id":"MAX_01","trial_duration":488},{"rt":1330,"stimulus":"stimuli/Ebbinghaus_str-2.0_diff0.44.png","response":"arrowleft","screen":"Trial","block":"Ebbinghaus","correct_response":"arrowleft","trial_type":"image-keyboard-response","trial_index":69,"time_elapsed":100915,"internal_node_id":"0.0-4.0-2.0-1.31","screen_height":764,"screen_width":1601,"browser":"chrome","browser_version":"103.0.0","mobile":false,"os":"Windows 10","vsync_rate":59.99,"participant_id":"MAX_01","prestimulus_duration":493,"correct":true,"type":"Ebbinghaus","illusion_strength":-2,"illusion_difference":0.4375,"block_number":1,"trial_number":32},{"rt":null,"stimulus":"<div style=\"font-size:60px;\">+</div>","response":null,"screen":"fixation","trial_type":"html-keyboard-response","trial_index":70,"time_elapsed":101424,"internal_node_id":"0.0-4.0-2.0-0.32","screen_height":764,"screen_width":1601,"browser":"chrome","browser_version":"103.0.0","mobile":false,"os":"Windows 10","vsync_rate":59.99,"participant_id":"MAX_01","trial_duration":498},{"rt":986,"stimulus":"stimuli/Ebbinghaus_str-0.4_diff-0.44.png","response":"arrowright","screen":"Trial","block":"Ebbinghaus","correct_response":"arrowright","trial_type":"image-keyboard-response","trial_index":71,"time_elapsed":102413,"internal_node_id":"0.0-4.0-2.0-1.32","screen_height":764,"screen_width":1601,"browser":"chrome","browser_version":"103.0.0","mobile":false,"os":"Windows 10","vsync_rate":59.99,"participant_id":"MAX_01","prestimulus_duration":509,"correct":true,"type":"Ebbinghaus","illusion_strength":-0.3999999999999999,"illusion_difference":-0.4375,"block_number":1,"trial_number":33},{"rt":null,"stimulus":"<div style=\"font-size:60px;\">+</div>","response":null,"screen":"fixation","trial_type":"html-keyboard-response","trial_index":72,"time_elapsed":102987,"internal_node_id":"0.0-4.0-2.0-0.33","screen_height":764,"screen_width":1601,"browser":"chrome","browser_version":"103.0.0","mobile":false,"os":"Windows 10","vsync_rate":59.99,"participant_id":"MAX_01","trial_duration":558},{"rt":828,"stimulus":"stimuli/Ebbinghaus_str2.0_diff0.1.png","response":"arrowleft","screen":"Trial","block":"Ebbinghaus","correct_response":"arrowleft","trial_type":"image-keyboard-response","trial_index":73,"time_elapsed":103817,"internal_node_id":"0.0-4.0-2.0-1.33","screen_height":764,"screen_width":1601,"browser":"chrome","browser_version":"103.0.0","mobile":false,"os":"Windows 10","vsync_rate":59.99,"participant_id":"MAX_01","prestimulus_duration":574,"correct":true,"type":"Ebbinghaus","illusion_strength":2,"illusion_difference":0.1,"block_number":1,"trial_number":34},{"rt":null,"stimulus":"<div style=\"font-size:60px;\">+</div>","response":null,"screen":"fixation","trial_type":"html-keyboard-response","trial_index":74,"time_elapsed":104300,"internal_node_id":"0.0-4.0-2.0-0.34","screen_height":764,"screen_width":1601,"browser":"chrome","browser_version":"103.0.0","mobile":false,"os":"Windows 10","vsync_rate":59.99,"participant_id":"MAX_01","trial_duration":470},{"rt":1045,"stimulus":"stimuli/Ebbinghaus_str2.0_diff-0.1.png","response":"arrowleft","screen":"Trial","block":"Ebbinghaus","correct_response":"arrowright","trial_type":"image-keyboard-response","trial_index":75,"time_elapsed":105345,"internal_node_id":"0.0-4.0-2.0-1.34","screen_height":764,"screen_width":1601,"browser":"chrome","browser_version":"103.0.0","mobile":false,"os":"Windows 10","vsync_rate":59.99,"participant_id":"MAX_01","prestimulus_duration":483,"correct":false,"type":"Ebbinghaus","illusion_strength":2,"illusion_difference":-0.1,"block_number":1,"trial_number":35},{"rt":null,"stimulus":"<div style=\"font-size:60px;\">+</div>","response":null,"screen":"fixation","trial_type":"html-keyboard-response","trial_index":76,"time_elapsed":105628,"internal_node_id":"0.0-4.0-2.0-0.35","screen_height":764,"screen_width":1601,"browser":"chrome","browser_version":"103.0.0","mobile":false,"os":"Windows 10","vsync_rate":59.99,"participant_id":"MAX_01","trial_duration":275},{"rt":918,"stimulus":"stimuli/Ebbinghaus_str1.2_diff1.0.png","response":"arrowleft","screen":"Trial","block":"Ebbinghaus","correct_response":"arrowleft","trial_type":"image-keyboard-response","trial_index":77,"time_elapsed":106547,"internal_node_id":"0.0-4.0-2.0-1.35","screen_height":764,"screen_width":1601,"browser":"chrome","browser_version":"103.0.0","mobile":false,"os":"Windows 10","vsync_rate":59.99,"participant_id":"MAX_01","prestimulus_duration":283,"correct":true,"type":"Ebbinghaus","illusion_strength":1.2000000000000002,"illusion_difference":1.0000000000000002,"block_number":1,"trial_number":36},{"rt":7656,"stimulus":"<p>Your score for this illusion is <p style=\"color: black; font-size: 48px; font-weight: bold;\">4069</p><hr><hr><p>Can you do better in the next illusion?</p>","response":0,"screen":"block_results","trial_type":"html-button-response","trial_index":78,"time_elapsed":114206,"internal_node_id":"0.0-4.0-3.0","screen_height":764,"screen_width":1601,"browser":"chrome","browser_version":"103.0.0","mobile":false,"os":"Windows 10","vsync_rate":59.99,"participant_id":"MAX_01"},{"success":true,"timeout":false,"failed_images":[],"failed_audio":[],"failed_video":[],"trial_type":"preload","trial_index":79,"time_elapsed":114208,"internal_node_id":"0.0-5.0-0.0","screen_height":764,"screen_width":1601,"browser":"chrome","browser_version":"103.0.0","mobile":false,"os":"Windows 10","vsync_rate":59.99,"participant_id":"MAX_01"},{"rt":18809,"stimulus":"<p><b>Part 2</b></p><p>In this part, two parallel red lines will appear, but they are partially hidden by a grey rectangle.</p><p>Your task is to tell if the <b>red line to the right</b> of the rectangle is above or below the line to the left. You need to answer as fast as you can, without making errors.</p><p>Press <b>the UP or the DOWN arrow</b> to indicate whether the <b>right red line is actually above or below the left red line.</b></p><div style='float: center'><img src='utils/stimuli_demo/Poggendorff_Demo.png' height='300'></img><p><img src='utils/answer/answer_updown_keyboard.PNG' height='150'></img></p><p class='small'>In this example, the correct answer is the <b>UP arrow</b>.</p></div><p>Are you ready? <b>Press ENTER to start</b></p>","response":"enter","trial_type":"html-keyboard-response","trial_index":80,"time_elapsed":133018,"internal_node_id":"0.0-5.0-1.0","screen_height":764,"screen_width":1601,"browser":"chrome","browser_version":"103.0.0","mobile":false,"os":"Windows 10","vsync_rate":59.99,"participant_id":"MAX_01"},{"rt":null,"stimulus":"<div style=\"font-size:60px;\">+</div>","response":null,"screen":"fixation","trial_type":"html-keyboard-response","trial_index":81,"time_elapsed":134052,"internal_node_id":"0.0-5.0-2.0-0.0","screen_height":764,"screen_width":1601,"browser":"chrome","browser_version":"103.0.0","mobile":false,"os":"Windows 10","vsync_rate":59.99,"participant_id":"MAX_01","trial_duration":530},{"rt":789,"stimulus":"stimuli/Poggendorff_str-12.0_diff-0.17.png","response":"arrowup","screen":"Trial","block":"Poggendorff","correct_response":"arrowdown","trial_type":"image-keyboard-response","trial_index":82,"time_elapsed":134843,"internal_node_id":"0.0-5.0-2.0-1.0","screen_height":764,"screen_width":1601,"browser":"chrome","browser_version":"103.0.0","mobile":false,"os":"Windows 10","vsync_rate":59.99,"participant_id":"MAX_01","prestimulus_duration":1034,"correct":false,"type":"Poggendorff","illusion_strength":-12,"illusion_difference":-0.16874999999999998,"block_number":2,"trial_number":1},{"rt":null,"stimulus":"<div style=\"font-size:60px;\">+</div>","response":null,"screen":"fixation","trial_type":"html-keyboard-response","trial_index":83,"time_elapsed":135112,"internal_node_id":"0.0-5.0-2.0-0.1","screen_height":764,"screen_width":1601,"browser":"chrome","browser_version":"103.0.0","mobile":false,"os":"Windows 10","vsync_rate":59.99,"participant_id":"MAX_01","trial_duration":255},{"rt":880,"stimulus":"stimuli/Poggendorff_str36.0_diff-0.03.png","response":"arrowdown","screen":"Trial","block":"Poggendorff","correct_response":"arrowdown","trial_type":"image-keyboard-response","trial_index":84,"time_elapsed":135993,"internal_node_id":"0.0-5.0-2.0-1.1","screen_height":764,"screen_width":1601,"browser":"chrome","browser_version":"103.0.0","mobile":false,"os":"Windows 10","vsync_rate":59.99,"participant_id":"MAX_01","prestimulus_duration":269,"correct":true,"type":"Poggendorff","illusion_strength":36,"illusion_difference":-0.03,"block_number":2,"trial_number":2},{"rt":null,"stimulus":"<div style=\"font-size:60px;\">+</div>","response":null,"screen":"fixation","trial_type":"html-keyboard-response","trial_index":85,"time_elapsed":136728,"internal_node_id":"0.0-5.0-2.0-0.2","screen_height":764,"screen_width":1601,"browser":"chrome","browser_version":"103.0.0","mobile":false,"os":"Windows 10","vsync_rate":59.99,"participant_id":"MAX_01","trial_duration":727},{"rt":824,"stimulus":"stimuli/Poggendorff_str-12.0_diff-0.03.png","response":"arrowup","screen":"Trial","block":"Poggendorff","correct_response":"arrowdown","trial_type":"image-keyboard-response","trial_index":86,"time_elapsed":137553,"internal_node_id":"0.0-5.0-2.0-1.2","screen_height":764,"screen_width":1601,"browser":"chrome","browser_version":"103.0.0","mobile":false,"os":"Windows 10","vsync_rate":59.99,"participant_id":"MAX_01","prestimulus_duration":735,"correct":false,"type":"Poggendorff","illusion_strength":-12,"illusion_difference":-0.03,"block_number":2,"trial_number":3},{"rt":null,"stimulus":"<div style=\"font-size:60px;\">+</div>","response":null,"screen":"fixation","trial_type":"html-keyboard-response","trial_index":87,"time_elapsed":138301,"internal_node_id":"0.0-5.0-2.0-0.3","screen_height":764,"screen_width":1601,"browser":"chrome","browser_version":"103.0.0","mobile":false,"os":"Windows 10","vsync_rate":59.99,"participant_id":"MAX_01","trial_duration":746},{"rt":987,"stimulus":"stimuli/Poggendorff_str-60.0_diff0.4.png","response":"arrowdown","screen":"Trial","block":"Poggendorff","correct_response":"arrowup","trial_type":"image-keyboard-response","trial_index":88,"time_elapsed":139289,"internal_node_id":"0.0-5.0-2.0-1.3","screen_height":764,"screen_width":1601,"browser":"chrome","browser_version":"103.0.0","mobile":false,"os":"Windows 10","vsync_rate":59.99,"participant_id":"MAX_01","prestimulus_duration":748,"correct":false,"type":"Poggendorff","illusion_strength":-60,"illusion_difference":0.4,"block_number":2,"trial_number":4},{"rt":null,"stimulus":"<div style=\"font-size:60px;\">+</div>","response":null,"screen":"fixation","trial_type":"html-keyboard-response","trial_index":89,"time_elapsed":139728,"internal_node_id":"0.0-5.0-2.0-0.4","screen_height":764,"screen_width":1601,"browser":"chrome","browser_version":"103.0.0","mobile":false,"os":"Windows 10","vsync_rate":59.99,"participant_id":"MAX_01","trial_duration":428},{"rt":920,"stimulus":"stimuli/Poggendorff_str-60.0_diff0.03.png","response":"arrowdown","screen":"Trial","block":"Poggendorff","correct_response":"arrowup","trial_type":"image-keyboard-response","trial_index":90,"time_elapsed":140649,"internal_node_id":"0.0-5.0-2.0-1.4","screen_height":764,"screen_width":1601,"browser":"chrome","browser_version":"103.0.0","mobile":false,"os":"Windows 10","vsync_rate":59.99,"participant_id":"MAX_01","prestimulus_duration":439,"correct":false,"type":"Poggendorff","illusion_strength":-60,"illusion_difference":0.03,"block_number":2,"trial_number":5},{"rt":null,"stimulus":"<div style=\"font-size:60px;\">+</div>","response":null,"screen":"fixation","trial_type":"html-keyboard-response","trial_index":91,"time_elapsed":141074,"internal_node_id":"0.0-5.0-2.0-0.5","screen_height":764,"screen_width":1601,"browser":"chrome","browser_version":"103.0.0","mobile":false,"os":"Windows 10","vsync_rate":59.99,"participant_id":"MAX_01","trial_duration":412},{"rt":1181,"stimulus":"stimuli/Poggendorff_str60.0_diff0.17.png","response":"arrowup","screen":"Trial","block":"Poggendorff","correct_response":"arrowup","trial_type":"image-keyboard-response","trial_index":92,"time_elapsed":142257,"internal_node_id":"0.0-5.0-2.0-1.5","screen_height":764,"screen_width":1601,"browser":"chrome","browser_version":"103.0.0","mobile":false,"os":"Windows 10","vsync_rate":59.99,"participant_id":"MAX_01","prestimulus_duration":425,"correct":true,"type":"Poggendorff","illusion_strength":60,"illusion_difference":0.16874999999999998,"block_number":2,"trial_number":6},{"rt":null,"stimulus":"<div style=\"font-size:60px;\">+</div>","response":null,"screen":"fixation","trial_type":"html-keyboard-response","trial_index":93,"time_elapsed":142880,"internal_node_id":"0.0-5.0-2.0-0.6","screen_height":764,"screen_width":1601,"browser":"chrome","browser_version":"103.0.0","mobile":false,"os":"Windows 10","vsync_rate":59.99,"participant_id":"MAX_01","trial_duration":609},{"rt":1210,"stimulus":"stimuli/Poggendorff_str-36.0_diff-0.03.png","response":"arrowdown","screen":"Trial","block":"Poggendorff","correct_response":"arrowdown","trial_type":"image-keyboard-response","trial_index":94,"time_elapsed":144091,"internal_node_id":"0.0-5.0-2.0-1.6","screen_height":764,"screen_width":1601,"browser":"chrome","browser_version":"103.0.0","mobile":false,"os":"Windows 10","vsync_rate":59.99,"participant_id":"MAX_01","prestimulus_duration":623,"correct":true,"type":"Poggendorff","illusion_strength":-36,"illusion_difference":-0.03,"block_number":2,"trial_number":7},{"rt":null,"stimulus":"<div style=\"font-size:60px;\">+</div>","response":null,"screen":"fixation","trial_type":"html-keyboard-response","trial_index":95,"time_elapsed":144392,"internal_node_id":"0.0-5.0-2.0-0.7","screen_height":764,"screen_width":1601,"browser":"chrome","browser_version":"103.0.0","mobile":false,"os":"Windows 10","vsync_rate":59.99,"participant_id":"MAX_01","trial_duration":296},{"rt":857,"stimulus":"stimuli/Poggendorff_str-36.0_diff0.17.png","response":"arrowdown","screen":"Trial","block":"Poggendorff","correct_response":"arrowup","trial_type":"image-keyboard-response","trial_index":96,"time_elapsed":145249,"internal_node_id":"0.0-5.0-2.0-1.7","screen_height":764,"screen_width":1601,"browser":"chrome","browser_version":"103.0.0","mobile":false,"os":"Windows 10","vsync_rate":59.99,"participant_id":"MAX_01","prestimulus_duration":301,"correct":false,"type":"Poggendorff","illusion_strength":-36,"illusion_difference":0.16874999999999998,"block_number":2,"trial_number":8},{"rt":null,"stimulus":"<div style=\"font-size:60px;\">+</div>","response":null,"screen":"fixation","trial_type":"html-keyboard-response","trial_index":97,"time_elapsed":146230,"internal_node_id":"0.0-5.0-2.0-0.8","screen_height":764,"screen_width":1601,"browser":"chrome","browser_version":"103.0.0","mobile":false,"os":"Windows 10","vsync_rate":59.99,"participant_id":"MAX_01","trial_duration":965},{"rt":779,"stimulus":"stimuli/Poggendorff_str-36.0_diff0.03.png","response":"arrowdown","screen":"Trial","block":"Poggendorff","correct_response":"arrowup","trial_type":"image-keyboard-response","trial_index":98,"time_elapsed":147011,"internal_node_id":"0.0-5.0-2.0-1.8","screen_height":764,"screen_width":1601,"browser":"chrome","browser_version":"103.0.0","mobile":false,"os":"Windows 10","vsync_rate":59.99,"participant_id":"MAX_01","prestimulus_duration":981,"correct":false,"type":"Poggendorff","illusion_strength":-36,"illusion_difference":0.03,"block_number":2,"trial_number":9},{"rt":null,"stimulus":"<div style=\"font-size:60px;\">+</div>","response":null,"screen":"fixation","trial_type":"html-keyboard-response","trial_index":99,"time_elapsed":147803,"internal_node_id":"0.0-5.0-2.0-0.9","screen_height":764,"screen_width":1601,"browser":"chrome","browser_version":"103.0.0","mobile":false,"os":"Windows 10","vsync_rate":59.99,"participant_id":"MAX_01","trial_duration":777},{"rt":757,"stimulus":"stimuli/Poggendorff_str-12.0_diff0.4.png","response":"arrowdown","screen":"Trial","block":"Poggendorff","correct_response":"arrowup","trial_type":"image-keyboard-response","trial_index":100,"time_elapsed":148561,"internal_node_id":"0.0-5.0-2.0-1.9","screen_height":764,"screen_width":1601,"browser":"chrome","browser_version":"103.0.0","mobile":false,"os":"Windows 10","vsync_rate":59.99,"participant_id":"MAX_01","prestimulus_duration":792,"correct":false,"type":"Poggendorff","illusion_strength":-12,"illusion_difference":0.4,"block_number":2,"trial_number":10},{"rt":null,"stimulus":"<div style=\"font-size:60px;\">+</div>","response":null,"screen":"fixation","trial_type":"html-keyboard-response","trial_index":101,"time_elapsed":148975,"internal_node_id":"0.0-5.0-2.0-0.10","screen_height":764,"screen_width":1601,"browser":"chrome","browser_version":"103.0.0","mobile":false,"os":"Windows 10","vsync_rate":59.99,"participant_id":"MAX_01","trial_duration":408},{"rt":755,"stimulus":"stimuli/Poggendorff_str36.0_diff0.4.png","response":"arrowup","screen":"Trial","block":"Poggendorff","correct_response":"arrowup","trial_type":"image-keyboard-response","trial_index":102,"time_elapsed":149730,"internal_node_id":"0.0-5.0-2.0-1.10","screen_height":764,"screen_width":1601,"browser":"chrome","browser_version":"103.0.0","mobile":false,"os":"Windows 10","vsync_rate":59.99,"participant_id":"MAX_01","prestimulus_duration":414,"correct":true,"type":"Poggendorff","illusion_strength":36,"illusion_difference":0.4,"block_number":2,"trial_number":11},{"rt":null,"stimulus":"<div style=\"font-size:60px;\">+</div>","response":null,"screen":"fixation","trial_type":"html-keyboard-response","trial_index":103,"time_elapsed":150439,"internal_node_id":"0.0-5.0-2.0-0.11","screen_height":764,"screen_width":1601,"browser":"chrome","browser_version":"103.0.0","mobile":false,"os":"Windows 10","vsync_rate":59.99,"participant_id":"MAX_01","trial_duration":705},{"rt":834,"stimulus":"stimuli/Poggendorff_str60.0_diff0.4.png","response":"arrowup","screen":"Trial","block":"Poggendorff","correct_response":"arrowup","trial_type":"image-keyboard-response","trial_index":104,"time_elapsed":151273,"internal_node_id":"0.0-5.0-2.0-1.11","screen_height":764,"screen_width":1601,"browser":"chrome","browser_version":"103.0.0","mobile":false,"os":"Windows 10","vsync_rate":59.99,"participant_id":"MAX_01","prestimulus_duration":709,"correct":true,"type":"Poggendorff","illusion_strength":60,"illusion_difference":0.4,"block_number":2,"trial_number":12},{"rt":null,"stimulus":"<div style=\"font-size:60px;\">+</div>","response":null,"screen":"fixation","trial_type":"html-keyboard-response","trial_index":105,"time_elapsed":152281,"internal_node_id":"0.0-5.0-2.0-0.12","screen_height":764,"screen_width":1601,"browser":"chrome","browser_version":"103.0.0","mobile":false,"os":"Windows 10","vsync_rate":59.99,"participant_id":"MAX_01","trial_duration":995},{"rt":967,"stimulus":"stimuli/Poggendorff_str60.0_diff-0.4.png","response":"arrowdown","screen":"Trial","block":"Poggendorff","correct_response":"arrowdown","trial_type":"image-keyboard-response","trial_index":106,"time_elapsed":153250,"internal_node_id":"0.0-5.0-2.0-1.12","screen_height":764,"screen_width":1601,"browser":"chrome","browser_version":"103.0.0","mobile":false,"os":"Windows 10","vsync_rate":59.99,"participant_id":"MAX_01","prestimulus_duration":1008,"correct":true,"type":"Poggendorff","illusion_strength":60,"illusion_difference":-0.4,"block_number":2,"trial_number":13},{"rt":null,"stimulus":"<div style=\"font-size:60px;\">+</div>","response":null,"screen":"fixation","trial_type":"html-keyboard-response","trial_index":107,"time_elapsed":153621,"internal_node_id":"0.0-5.0-2.0-0.13","screen_height":764,"screen_width":1601,"browser":"chrome","browser_version":"103.0.0","mobile":false,"os":"Windows 10","vsync_rate":59.99,"participant_id":"MAX_01","trial_duration":369},{"rt":907,"stimulus":"stimuli/Poggendorff_str36.0_diff-0.17.png","response":"arrowdown","screen":"Trial","block":"Poggendorff","correct_response":"arrowdown","trial_type":"image-keyboard-response","trial_index":108,"time_elapsed":154529,"internal_node_id":"0.0-5.0-2.0-1.13","screen_height":764,"screen_width":1601,"browser":"chrome","browser_version":"103.0.0","mobile":false,"os":"Windows 10","vsync_rate":59.99,"participant_id":"MAX_01","prestimulus_duration":371,"correct":true,"type":"Poggendorff","illusion_strength":36,"illusion_difference":-0.16874999999999998,"block_number":2,"trial_number":14},{"rt":null,"stimulus":"<div style=\"font-size:60px;\">+</div>","response":null,"screen":"fixation","trial_type":"html-keyboard-response","trial_index":109,"time_elapsed":154976,"internal_node_id":"0.0-5.0-2.0-0.14","screen_height":764,"screen_width":1601,"browser":"chrome","browser_version":"103.0.0","mobile":false,"os":"Windows 10","vsync_rate":59.99,"participant_id":"MAX_01","trial_duration":440},{"rt":1456,"stimulus":"stimuli/Poggendorff_str-36.0_diff0.4.png","response":"arrowdown","screen":"Trial","block":"Poggendorff","correct_response":"arrowup","trial_type":"image-keyboard-response","trial_index":110,"time_elapsed":156433,"internal_node_id":"0.0-5.0-2.0-1.14","screen_height":764,"screen_width":1601,"browser":"chrome","browser_version":"103.0.0","mobile":false,"os":"Windows 10","vsync_rate":59.99,"participant_id":"MAX_01","prestimulus_duration":447,"correct":false,"type":"Poggendorff","illusion_strength":-36,"illusion_difference":0.4,"block_number":2,"trial_number":15},{"rt":null,"stimulus":"<div style=\"font-size:60px;\">+</div>","response":null,"screen":"fixation","trial_type":"html-keyboard-response","trial_index":111,"time_elapsed":157078,"internal_node_id":"0.0-5.0-2.0-0.15","screen_height":764,"screen_width":1601,"browser":"chrome","browser_version":"103.0.0","mobile":false,"os":"Windows 10","vsync_rate":59.99,"participant_id":"MAX_01","trial_duration":632},{"rt":787,"stimulus":"stimuli/Poggendorff_str-36.0_diff-0.17.png","response":"arrowup","screen":"Trial","block":"Poggendorff","correct_response":"arrowdown","trial_type":"image-keyboard-response","trial_index":112,"time_elapsed":157866,"internal_node_id":"0.0-5.0-2.0-1.15","screen_height":764,"screen_width":1601,"browser":"chrome","browser_version":"103.0.0","mobile":false,"os":"Windows 10","vsync_rate":59.99,"participant_id":"MAX_01","prestimulus_duration":645,"correct":false,"type":"Poggendorff","illusion_strength":-36,"illusion_difference":-0.16874999999999998,"block_number":2,"trial_number":16},{"rt":null,"stimulus":"<div style=\"font-size:60px;\">+</div>","response":null,"screen":"fixation","trial_type":"html-keyboard-response","trial_index":113,"time_elapsed":158544,"internal_node_id":"0.0-5.0-2.0-0.16","screen_height":764,"screen_width":1601,"browser":"chrome","browser_version":"103.0.0","mobile":false,"os":"Windows 10","vsync_rate":59.99,"participant_id":"MAX_01","trial_duration":676},{"rt":705,"stimulus":"stimuli/Poggendorff_str-60.0_diff0.17.png","response":"arrowdown","screen":"Trial","block":"Poggendorff","correct_response":"arrowup","trial_type":"image-keyboard-response","trial_index":114,"time_elapsed":159249,"internal_node_id":"0.0-5.0-2.0-1.16","screen_height":764,"screen_width":1601,"browser":"chrome","browser_version":"103.0.0","mobile":false,"os":"Windows 10","vsync_rate":59.99,"participant_id":"MAX_01","prestimulus_duration":678,"correct":false,"type":"Poggendorff","illusion_strength":-60,"illusion_difference":0.16874999999999998,"block_number":2,"trial_number":17},{"rt":null,"stimulus":"<div style=\"font-size:60px;\">+</div>","response":null,"screen":"fixation","trial_type":"html-keyboard-response","trial_index":115,"time_elapsed":159980,"internal_node_id":"0.0-5.0-2.0-0.17","screen_height":764,"screen_width":1601,"browser":"chrome","browser_version":"103.0.0","mobile":false,"os":"Windows 10","vsync_rate":59.99,"participant_id":"MAX_01","trial_duration":716},{"rt":900,"stimulus":"stimuli/Poggendorff_str60.0_diff-0.17.png","response":"arrowdown","screen":"Trial","block":"Poggendorff","correct_response":"arrowdown","trial_type":"image-keyboard-response","trial_index":116,"time_elapsed":160881,"internal_node_id":"0.0-5.0-2.0-1.17","screen_height":764,"screen_width":1601,"browser":"chrome","browser_version":"103.0.0","mobile":false,"os":"Windows 10","vsync_rate":59.99,"participant_id":"MAX_01","prestimulus_duration":731,"correct":true,"type":"Poggendorff","illusion_strength":60,"illusion_difference":-0.16874999999999998,"block_number":2,"trial_number":18},{"rt":null,"stimulus":"<div style=\"font-size:60px;\">+</div>","response":null,"screen":"fixation","trial_type":"html-keyboard-response","trial_index":117,"time_elapsed":161594,"internal_node_id":"0.0-5.0-2.0-0.18","screen_height":764,"screen_width":1601,"browser":"chrome","browser_version":"103.0.0","mobile":false,"os":"Windows 10","vsync_rate":59.99,"participant_id":"MAX_01","trial_duration":699},{"rt":744,"stimulus":"stimuli/Poggendorff_str12.0_diff0.4.png","response":"arrowup","screen":"Trial","block":"Poggendorff","correct_response":"arrowup","trial_type":"image-keyboard-response","trial_index":118,"time_elapsed":162339,"internal_node_id":"0.0-5.0-2.0-1.18","screen_height":764,"screen_width":1601,"browser":"chrome","browser_version":"103.0.0","mobile":false,"os":"Windows 10","vsync_rate":59.99,"participant_id":"MAX_01","prestimulus_duration":713,"correct":true,"type":"Poggendorff","illusion_strength":12,"illusion_difference":0.4,"block_number":2,"trial_number":19},{"rt":null,"stimulus":"<div style=\"font-size:60px;\">+</div>","response":null,"screen":"fixation","trial_type":"html-keyboard-response","trial_index":119,"time_elapsed":162983,"internal_node_id":"0.0-5.0-2.0-0.19","screen_height":764,"screen_width":1601,"browser":"chrome","browser_version":"103.0.0","mobile":false,"os":"Windows 10","vsync_rate":59.99,"participant_id":"MAX_01","trial_duration":635},{"rt":882,"stimulus":"stimuli/Poggendorff_str-36.0_diff-0.4.png","response":"arrowup","screen":"Trial","block":"Poggendorff","correct_response":"arrowdown","trial_type":"image-keyboard-response","trial_index":120,"time_elapsed":163867,"internal_node_id":"0.0-5.0-2.0-1.19","screen_height":764,"screen_width":1601,"browser":"chrome","browser_version":"103.0.0","mobile":false,"os":"Windows 10","vsync_rate":59.99,"participant_id":"MAX_01","prestimulus_duration":644,"correct":false,"type":"Poggendorff","illusion_strength":-36,"illusion_difference":-0.4,"block_number":2,"trial_number":20},{"rt":null,"stimulus":"<div style=\"font-size:60px;\">+</div>","response":null,"screen":"fixation","trial_type":"html-keyboard-response","trial_index":121,"time_elapsed":164403,"internal_node_id":"0.0-5.0-2.0-0.20","screen_height":764,"screen_width":1601,"browser":"chrome","browser_version":"103.0.0","mobile":false,"os":"Windows 10","vsync_rate":59.99,"participant_id":"MAX_01","trial_duration":532},{"rt":934,"stimulus":"stimuli/Poggendorff_str-12.0_diff-0.4.png","response":"arrowup","screen":"Trial","block":"Poggendorff","correct_response":"arrowdown","trial_type":"image-keyboard-response","trial_index":122,"time_elapsed":165337,"internal_node_id":"0.0-5.0-2.0-1.20","screen_height":764,"screen_width":1601,"browser":"chrome","browser_version":"103.0.0","mobile":false,"os":"Windows 10","vsync_rate":59.99,"participant_id":"MAX_01","prestimulus_duration":536,"correct":false,"type":"Poggendorff","illusion_strength":-12,"illusion_difference":-0.4,"block_number":2,"trial_number":21},{"rt":null,"stimulus":"<div style=\"font-size:60px;\">+</div>","response":null,"screen":"fixation","trial_type":"html-keyboard-response","trial_index":123,"time_elapsed":166119,"internal_node_id":"0.0-5.0-2.0-0.21","screen_height":764,"screen_width":1601,"browser":"chrome","browser_version":"103.0.0","mobile":false,"os":"Windows 10","vsync_rate":59.99,"participant_id":"MAX_01","trial_duration":767},{"rt":666,"stimulus":"stimuli/Poggendorff_str36.0_diff-0.4.png","response":"arrowdown","screen":"Trial","block":"Poggendorff","correct_response":"arrowdown","trial_type":"image-keyboard-response","trial_index":124,"time_elapsed":166788,"internal_node_id":"0.0-5.0-2.0-1.21","screen_height":764,"screen_width":1601,"browser":"chrome","browser_version":"103.0.0","mobile":false,"os":"Windows 10","vsync_rate":59.99,"participant_id":"MAX_01","prestimulus_duration":782,"correct":true,"type":"Poggendorff","illusion_strength":36,"illusion_difference":-0.4,"block_number":2,"trial_number":22},{"rt":null,"stimulus":"<div style=\"font-size:60px;\">+</div>","response":null,"screen":"fixation","trial_type":"html-keyboard-response","trial_index":125,"time_elapsed":167654,"internal_node_id":"0.0-5.0-2.0-0.22","screen_height":764,"screen_width":1601,"browser":"chrome","browser_version":"103.0.0","mobile":false,"os":"Windows 10","vsync_rate":59.99,"participant_id":"MAX_01","trial_duration":861},{"rt":685,"stimulus":"stimuli/Poggendorff_str12.0_diff-0.4.png","response":"arrowdown","screen":"Trial","block":"Poggendorff","correct_response":"arrowdown","trial_type":"image-keyboard-response","trial_index":126,"time_elapsed":168341,"internal_node_id":"0.0-5.0-2.0-1.22","screen_height":764,"screen_width":1601,"browser":"chrome","browser_version":"103.0.0","mobile":false,"os":"Windows 10","vsync_rate":59.99,"participant_id":"MAX_01","prestimulus_duration":866,"correct":true,"type":"Poggendorff","illusion_strength":12,"illusion_difference":-0.4,"block_number":2,"trial_number":23},{"rt":null,"stimulus":"<div style=\"font-size:60px;\">+</div>","response":null,"screen":"fixation","trial_type":"html-keyboard-response","trial_index":127,"time_elapsed":169297,"internal_node_id":"0.0-5.0-2.0-0.23","screen_height":764,"screen_width":1601,"browser":"chrome","browser_version":"103.0.0","mobile":false,"os":"Windows 10","vsync_rate":59.99,"participant_id":"MAX_01","trial_duration":949},{"rt":1016,"stimulus":"stimuli/Poggendorff_str-12.0_diff0.03.png","response":"arrowdown","screen":"Trial","block":"Poggendorff","correct_response":"arrowup","trial_type":"image-keyboard-response","trial_index":128,"time_elapsed":170316,"internal_node_id":"0.0-5.0-2.0-1.23","screen_height":764,"screen_width":1601,"browser":"chrome","browser_version":"103.0.0","mobile":false,"os":"Windows 10","vsync_rate":59.99,"participant_id":"MAX_01","prestimulus_duration":956,"correct":false,"type":"Poggendorff","illusion_strength":-12,"illusion_difference":0.03,"block_number":2,"trial_number":24},{"rt":null,"stimulus":"<div style=\"font-size:60px;\">+</div>","response":null,"screen":"fixation","trial_type":"html-keyboard-response","trial_index":129,"time_elapsed":170634,"internal_node_id":"0.0-5.0-2.0-0.24","screen_height":764,"screen_width":1601,"browser":"chrome","browser_version":"103.0.0","mobile":false,"os":"Windows 10","vsync_rate":59.99,"participant_id":"MAX_01","trial_duration":302},{"rt":784,"stimulus":"stimuli/Poggendorff_str-60.0_diff-0.17.png","response":"arrowdown","screen":"Trial","block":"Poggendorff","correct_response":"arrowdown","trial_type":"image-keyboard-response","trial_index":130,"time_elapsed":171421,"internal_node_id":"0.0-5.0-2.0-1.24","screen_height":764,"screen_width":1601,"browser":"chrome","browser_version":"103.0.0","mobile":false,"os":"Windows 10","vsync_rate":59.99,"participant_id":"MAX_01","prestimulus_duration":318,"correct":true,"type":"Poggendorff","illusion_strength":-60,"illusion_difference":-0.16874999999999998,"block_number":2,"trial_number":25},{"rt":null,"stimulus":"<div style=\"font-size:60px;\">+</div>","response":null,"screen":"fixation","trial_type":"html-keyboard-response","trial_index":131,"time_elapsed":172279,"internal_node_id":"0.0-5.0-2.0-0.25","screen_height":764,"screen_width":1601,"browser":"chrome","browser_version":"103.0.0","mobile":false,"os":"Windows 10","vsync_rate":59.99,"participant_id":"MAX_01","trial_duration":855},{"rt":777,"stimulus":"stimuli/Poggendorff_str12.0_diff-0.17.png","response":"arrowdown","screen":"Trial","block":"Poggendorff","correct_response":"arrowdown","trial_type":"image-keyboard-response","trial_index":132,"time_elapsed":173057,"internal_node_id":"0.0-5.0-2.0-1.25","screen_height":764,"screen_width":1601,"browser":"chrome","browser_version":"103.0.0","mobile":false,"os":"Windows 10","vsync_rate":59.99,"participant_id":"MAX_01","prestimulus_duration":858,"correct":true,"type":"Poggendorff","illusion_strength":12,"illusion_difference":-0.16874999999999998,"block_number":2,"trial_number":26},{"rt":null,"stimulus":"<div style=\"font-size:60px;\">+</div>","response":null,"screen":"fixation","trial_type":"html-keyboard-response","trial_index":133,"time_elapsed":173782,"internal_node_id":"0.0-5.0-2.0-0.26","screen_height":764,"screen_width":1601,"browser":"chrome","browser_version":"103.0.0","mobile":false,"os":"Windows 10","vsync_rate":59.99,"participant_id":"MAX_01","trial_duration":720},{"rt":923,"stimulus":"stimuli/Poggendorff_str60.0_diff-0.03.png","response":"arrowdown","screen":"Trial","block":"Poggendorff","correct_response":"arrowdown","trial_type":"image-keyboard-response","trial_index":134,"time_elapsed":174706,"internal_node_id":"0.0-5.0-2.0-1.26","screen_height":764,"screen_width":1601,"browser":"chrome","browser_version":"103.0.0","mobile":false,"os":"Windows 10","vsync_rate":59.99,"participant_id":"MAX_01","prestimulus_duration":725,"correct":true,"type":"Poggendorff","illusion_strength":60,"illusion_difference":-0.03,"block_number":2,"trial_number":27},{"rt":null,"stimulus":"<div style=\"font-size:60px;\">+</div>","response":null,"screen":"fixation","trial_type":"html-keyboard-response","trial_index":135,"time_elapsed":175622,"internal_node_id":"0.0-5.0-2.0-0.27","screen_height":764,"screen_width":1601,"browser":"chrome","browser_version":"103.0.0","mobile":false,"os":"Windows 10","vsync_rate":59.99,"participant_id":"MAX_01","trial_duration":906},{"rt":923,"stimulus":"stimuli/Poggendorff_str-60.0_diff-0.4.png","response":"arrowup","screen":"Trial","block":"Poggendorff","correct_response":"arrowdown","trial_type":"image-keyboard-response","trial_index":136,"time_elapsed":176547,"internal_node_id":"0.0-5.0-2.0-1.27","screen_height":764,"screen_width":1601,"browser":"chrome","browser_version":"103.0.0","mobile":false,"os":"Windows 10","vsync_rate":59.99,"participant_id":"MAX_01","prestimulus_duration":916,"correct":false,"type":"Poggendorff","illusion_strength":-60,"illusion_difference":-0.4,"block_number":2,"trial_number":28},{"rt":null,"stimulus":"<div style=\"font-size:60px;\">+</div>","response":null,"screen":"fixation","trial_type":"html-keyboard-response","trial_index":137,"time_elapsed":177498,"internal_node_id":"0.0-5.0-2.0-0.28","screen_height":764,"screen_width":1601,"browser":"chrome","browser_version":"103.0.0","mobile":false,"os":"Windows 10","vsync_rate":59.99,"participant_id":"MAX_01","trial_duration":943},{"rt":1055,"stimulus":"stimuli/Poggendorff_str-60.0_diff-0.03.png","response":"arrowup","screen":"Trial","block":"Poggendorff","correct_response":"arrowdown","trial_type":"image-keyboard-response","trial_index":138,"time_elapsed":178555,"internal_node_id":"0.0-5.0-2.0-1.28","screen_height":764,"screen_width":1601,"browser":"chrome","browser_version":"103.0.0","mobile":false,"os":"Windows 10","vsync_rate":59.99,"participant_id":"MAX_01","prestimulus_duration":951,"correct":false,"type":"Poggendorff","illusion_strength":-60,"illusion_difference":-0.03,"block_number":2,"trial_number":29},{"rt":null,"stimulus":"<div style=\"font-size:60px;\">+</div>","response":null,"screen":"fixation","trial_type":"html-keyboard-response","trial_index":139,"time_elapsed":178972,"internal_node_id":"0.0-5.0-2.0-0.29","screen_height":764,"screen_width":1601,"browser":"chrome","browser_version":"103.0.0","mobile":false,"os":"Windows 10","vsync_rate":59.99,"participant_id":"MAX_01","trial_duration":403},{"rt":869,"stimulus":"stimuli/Poggendorff_str12.0_diff-0.03.png","response":"arrowdown","screen":"Trial","block":"Poggendorff","correct_response":"arrowdown","trial_type":"image-keyboard-response","trial_index":140,"time_elapsed":179841,"internal_node_id":"0.0-5.0-2.0-1.29","screen_height":764,"screen_width":1601,"browser":"chrome","browser_version":"103.0.0","mobile":false,"os":"Windows 10","vsync_rate":59.99,"participant_id":"MAX_01","prestimulus_duration":417,"correct":true,"type":"Poggendorff","illusion_strength":12,"illusion_difference":-0.03,"block_number":2,"trial_number":30},{"rt":null,"stimulus":"<div style=\"font-size:60px;\">+</div>","response":null,"screen":"fixation","trial_type":"html-keyboard-response","trial_index":141,"time_elapsed":180703,"internal_node_id":"0.0-5.0-2.0-0.30","screen_height":764,"screen_width":1601,"browser":"chrome","browser_version":"103.0.0","mobile":false,"os":"Windows 10","vsync_rate":59.99,"participant_id":"MAX_01","trial_duration":847},{"rt":891,"stimulus":"stimuli/Poggendorff_str36.0_diff0.03.png","response":"arrowdown","screen":"Trial","block":"Poggendorff","correct_response":"arrowup","trial_type":"image-keyboard-response","trial_index":142,"time_elapsed":181595,"internal_node_id":"0.0-5.0-2.0-1.30","screen_height":764,"screen_width":1601,"browser":"chrome","browser_version":"103.0.0","mobile":false,"os":"Windows 10","vsync_rate":59.99,"participant_id":"MAX_01","prestimulus_duration":862,"correct":false,"type":"Poggendorff","illusion_strength":36,"illusion_difference":0.03,"block_number":2,"trial_number":31},{"rt":null,"stimulus":"<div style=\"font-size:60px;\">+</div>","response":null,"screen":"fixation","trial_type":"html-keyboard-response","trial_index":143,"time_elapsed":182593,"internal_node_id":"0.0-5.0-2.0-0.31","screen_height":764,"screen_width":1601,"browser":"chrome","browser_version":"103.0.0","mobile":false,"os":"Windows 10","vsync_rate":59.99,"participant_id":"MAX_01","trial_duration":982},{"rt":768,"stimulus":"stimuli/Poggendorff_str60.0_diff0.03.png","response":"arrowdown","screen":"Trial","block":"Poggendorff","correct_response":"arrowup","trial_type":"image-keyboard-response","trial_index":144,"time_elapsed":183363,"internal_node_id":"0.0-5.0-2.0-1.31","screen_height":764,"screen_width":1601,"browser":"chrome","browser_version":"103.0.0","mobile":false,"os":"Windows 10","vsync_rate":59.99,"participant_id":"MAX_01","prestimulus_duration":998,"correct":false,"type":"Poggendorff","illusion_strength":60,"illusion_difference":0.03,"block_number":2,"trial_number":32},{"rt":null,"stimulus":"<div style=\"font-size:60px;\">+</div>","response":null,"screen":"fixation","trial_type":"html-keyboard-response","trial_index":145,"time_elapsed":184203,"internal_node_id":"0.0-5.0-2.0-0.32","screen_height":764,"screen_width":1601,"browser":"chrome","browser_version":"103.0.0","mobile":false,"os":"Windows 10","vsync_rate":59.99,"participant_id":"MAX_01","trial_duration":833},{"rt":772,"stimulus":"stimuli/Poggendorff_str36.0_diff0.17.png","response":"arrowup","screen":"Trial","block":"Poggendorff","correct_response":"arrowup","trial_type":"image-keyboard-response","trial_index":146,"time_elapsed":184977,"internal_node_id":"0.0-5.0-2.0-1.32","screen_height":764,"screen_width":1601,"browser":"chrome","browser_version":"103.0.0","mobile":false,"os":"Windows 10","vsync_rate":59.99,"participant_id":"MAX_01","prestimulus_duration":840,"correct":true,"type":"Poggendorff","illusion_strength":36,"illusion_difference":0.16874999999999998,"block_number":2,"trial_number":33},{"rt":null,"stimulus":"<div style=\"font-size:60px;\">+</div>","response":null,"screen":"fixation","trial_type":"html-keyboard-response","trial_index":147,"time_elapsed":185800,"internal_node_id":"0.0-5.0-2.0-0.33","screen_height":764,"screen_width":1601,"browser":"chrome","browser_version":"103.0.0","mobile":false,"os":"Windows 10","vsync_rate":59.99,"participant_id":"MAX_01","trial_duration":807},{"rt":817,"stimulus":"stimuli/Poggendorff_str12.0_diff0.03.png","response":"arrowup","screen":"Trial","block":"Poggendorff","correct_response":"arrowup","trial_type":"image-keyboard-response","trial_index":148,"time_elapsed":186619,"internal_node_id":"0.0-5.0-2.0-1.33","screen_height":764,"screen_width":1601,"browser":"chrome","browser_version":"103.0.0","mobile":false,"os":"Windows 10","vsync_rate":59.99,"participant_id":"MAX_01","prestimulus_duration":823,"correct":true,"type":"Poggendorff","illusion_strength":12,"illusion_difference":0.03,"block_number":2,"trial_number":34},{"rt":null,"stimulus":"<div style=\"font-size:60px;\">+</div>","response":null,"screen":"fixation","trial_type":"html-keyboard-response","trial_index":149,"time_elapsed":186991,"internal_node_id":"0.0-5.0-2.0-0.34","screen_height":764,"screen_width":1601,"browser":"chrome","browser_version":"103.0.0","mobile":false,"os":"Windows 10","vsync_rate":59.99,"participant_id":"MAX_01","trial_duration":361},{"rt":778,"stimulus":"stimuli/Poggendorff_str-12.0_diff0.17.png","response":"arrowdown","screen":"Trial","block":"Poggendorff","correct_response":"arrowup","trial_type":"image-keyboard-response","trial_index":150,"time_elapsed":187769,"internal_node_id":"0.0-5.0-2.0-1.34","screen_height":764,"screen_width":1601,"browser":"chrome","browser_version":"103.0.0","mobile":false,"os":"Windows 10","vsync_rate":59.99,"participant_id":"MAX_01","prestimulus_duration":372,"correct":false,"type":"Poggendorff","illusion_strength":-12,"illusion_difference":0.16874999999999998,"block_number":2,"trial_number":35},{"rt":null,"stimulus":"<div style=\"font-size:60px;\">+</div>","response":null,"screen":"fixation","trial_type":"html-keyboard-response","trial_index":151,"time_elapsed":188288,"internal_node_id":"0.0-5.0-2.0-0.35","screen_height":764,"screen_width":1601,"browser":"chrome","browser_version":"103.0.0","mobile":false,"os":"Windows 10","vsync_rate":59.99,"participant_id":"MAX_01","trial_duration":503},{"rt":767,"stimulus":"stimuli/Poggendorff_str12.0_diff0.17.png","response":"arrowup","screen":"Trial","block":"Poggendorff","correct_response":"arrowup","trial_type":"image-keyboard-response","trial_index":152,"time_elapsed":189057,"internal_node_id":"0.0-5.0-2.0-1.35","screen_height":764,"screen_width":1601,"browser":"chrome","browser_version":"103.0.0","mobile":false,"os":"Windows 10","vsync_rate":59.99,"participant_id":"MAX_01","prestimulus_duration":519,"correct":true,"type":"Poggendorff","illusion_strength":12,"illusion_difference":0.16874999999999998,"block_number":2,"trial_number":36},{"rt":4262,"stimulus":"<p>Your score for this illusion is <p style=\"color: black; font-size: 48px; font-weight: bold;\">3285</p><hr><hr><p>Can you do better in the next illusion?</p>","response":0,"screen":"block_results","trial_type":"html-button-response","trial_index":153,"time_elapsed":193323,"internal_node_id":"0.0-5.0-3.0","screen_height":764,"screen_width":1601,"browser":"chrome","browser_version":"103.0.0","mobile":false,"os":"Windows 10","vsync_rate":59.99,"participant_id":"MAX_01"},{"success":true,"timeout":false,"failed_images":[],"failed_audio":[],"failed_video":[],"trial_type":"preload","trial_index":154,"time_elapsed":193325,"internal_node_id":"0.0-6.0-0.0","screen_height":764,"screen_width":1601,"browser":"chrome","browser_version":"103.0.0","mobile":false,"os":"Windows 10","vsync_rate":59.99,"participant_id":"MAX_01"},{"rt":10115,"stimulus":"<p><b>Part 3</b></p><p>In this part, two red lines will appear side by side.</p><p>Your task is to tell <b>which line is the longer</b> as fast as you can, and without making errors.</p><p>Don't get distracted by the orientation of the lines!</p><p>Press <b>the LEFT or the RIGHT arrow</b> to indicate which <b>line is the longer one.</b></p><div style='float: center'><img src='utils/stimuli_demo/VerticalHorizontal_Demo.png' height='300'></img><p><img src='utils/answer/answer_leftright_keyboard.PNG' height='150'></img></p><p class='small'>In this example, the correct answer is the <b>LEFT arrow</b>.</p></div><p>Are you ready? <b>Press ENTER to start</b></p>","response":"enter","trial_type":"html-keyboard-response","trial_index":155,"time_elapsed":203441,"internal_node_id":"0.0-6.0-1.0","screen_height":764,"screen_width":1601,"browser":"chrome","browser_version":"103.0.0","mobile":false,"os":"Windows 10","vsync_rate":59.99,"participant_id":"MAX_01"},{"rt":null,"stimulus":"<div style=\"font-size:60px;\">+</div>","response":null,"screen":"fixation","trial_type":"html-keyboard-response","trial_index":156,"time_elapsed":204938,"internal_node_id":"0.0-6.0-2.0-0.0","screen_height":764,"screen_width":1601,"browser":"chrome","browser_version":"103.0.0","mobile":false,"os":"Windows 10","vsync_rate":59.99,"participant_id":"MAX_01","trial_duration":984},{"rt":1007,"stimulus":"stimuli/VerticalHorizontal_str90.0_diff-0.12.png","response":"arrowright","screen":"Trial","block":"VerticalHorizontal","correct_response":"arrowright","trial_type":"image-keyboard-response","trial_index":157,"time_elapsed":205947,"internal_node_id":"0.0-6.0-2.0-1.0","screen_height":764,"screen_width":1601,"browser":"chrome","browser_version":"103.0.0","mobile":false,"os":"Windows 10","vsync_rate":59.99,"participant_id":"MAX_01","prestimulus_duration":1497,"correct":true,"type":"VerticalHorizontal","illusion_strength":90,"illusion_difference":-0.125,"block_number":3,"trial_number":1},{"rt":null,"stimulus":"<div style=\"font-size:60px;\">+</div>","response":null,"screen":"fixation","trial_type":"html-keyboard-response","trial_index":158,"time_elapsed":206373,"internal_node_id":"0.0-6.0-2.0-0.1","screen_height":764,"screen_width":1601,"browser":"chrome","browser_version":"103.0.0","mobile":false,"os":"Windows 10","vsync_rate":59.99,"participant_id":"MAX_01","trial_duration":413},{"rt":722,"stimulus":"stimuli/VerticalHorizontal_str54.0_diff-0.12.png","response":"arrowright","screen":"Trial","block":"VerticalHorizontal","correct_response":"arrowright","trial_type":"image-keyboard-response","trial_index":159,"time_elapsed":207096,"internal_node_id":"0.0-6.0-2.0-1.1","screen_height":764,"screen_width":1601,"browser":"chrome","browser_version":"103.0.0","mobile":false,"os":"Windows 10","vsync_rate":59.99,"participant_id":"MAX_01","prestimulus_duration":426,"correct":true,"type":"VerticalHorizontal","illusion_strength":54,"illusion_difference":-0.125,"block_number":3,"trial_number":2},{"rt":null,"stimulus":"<div style=\"font-size:60px;\">+</div>","response":null,"screen":"fixation","trial_type":"html-keyboard-response","trial_index":160,"time_elapsed":207831,"internal_node_id":"0.0-6.0-2.0-0.2","screen_height":764,"screen_width":1601,"browser":"chrome","browser_version":"103.0.0","mobile":false,"os":"Windows 10","vsync_rate":59.99,"participant_id":"MAX_01","trial_duration":732},{"rt":762,"stimulus":"stimuli/VerticalHorizontal_str-18.0_diff0.12.png","response":"arrowleft","screen":"Trial","block":"VerticalHorizontal","correct_response":"arrowleft","trial_type":"image-keyboard-response","trial_index":161,"time_elapsed":208594,"internal_node_id":"0.0-6.0-2.0-1.2","screen_height":764,"screen_width":1601,"browser":"chrome","browser_version":"103.0.0","mobile":false,"os":"Windows 10","vsync_rate":59.99,"participant_id":"MAX_01","prestimulus_duration":735,"correct":true,"type":"VerticalHorizontal","illusion_strength":-18,"illusion_difference":0.125,"block_number":3,"trial_number":3},{"rt":null,"stimulus":"<div style=\"font-size:60px;\">+</div>","response":null,"screen":"fixation","trial_type":"html-keyboard-response","trial_index":162,"time_elapsed":208942,"internal_node_id":"0.0-6.0-2.0-0.3","screen_height":764,"screen_width":1601,"browser":"chrome","browser_version":"103.0.0","mobile":false,"os":"Windows 10","vsync_rate":59.99,"participant_id":"MAX_01","trial_duration":342},{"rt":883,"stimulus":"stimuli/VerticalHorizontal_str90.0_diff-0.25.png","response":"arrowright","screen":"Trial","block":"VerticalHorizontal","correct_response":"arrowright","trial_type":"image-keyboard-response","trial_index":163,"time_elapsed":209827,"internal_node_id":"0.0-6.0-2.0-1.3","screen_height":764,"screen_width":1601,"browser":"chrome","browser_version":"103.0.0","mobile":false,"os":"Windows 10","vsync_rate":59.99,"participant_id":"MAX_01","prestimulus_duration":348,"correct":true,"type":"VerticalHorizontal","illusion_strength":90,"illusion_difference":-0.25,"block_number":3,"trial_number":4},{"rt":null,"stimulus":"<div style=\"font-size:60px;\">+</div>","response":null,"screen":"fixation","trial_type":"html-keyboard-response","trial_index":164,"time_elapsed":210504,"internal_node_id":"0.0-6.0-2.0-0.4","screen_height":764,"screen_width":1601,"browser":"chrome","browser_version":"103.0.0","mobile":false,"os":"Windows 10","vsync_rate":59.99,"participant_id":"MAX_01","trial_duration":671},{"rt":1136,"stimulus":"stimuli/VerticalHorizontal_str-90.0_diff-0.12.png","response":"arrowright","screen":"Trial","block":"VerticalHorizontal","correct_response":"arrowright","trial_type":"image-keyboard-response","trial_index":165,"time_elapsed":211640,"internal_node_id":"0.0-6.0-2.0-1.4","screen_height":764,"screen_width":1601,"browser":"chrome","browser_version":"103.0.0","mobile":false,"os":"Windows 10","vsync_rate":59.99,"participant_id":"MAX_01","prestimulus_duration":677,"correct":true,"type":"VerticalHorizontal","illusion_strength":-90,"illusion_difference":-0.125,"block_number":3,"trial_number":5},{"rt":null,"stimulus":"<div style=\"font-size:60px;\">+</div>","response":null,"screen":"fixation","trial_type":"html-keyboard-response","trial_index":166,"time_elapsed":212288,"internal_node_id":"0.0-6.0-2.0-0.5","screen_height":764,"screen_width":1601,"browser":"chrome","browser_version":"103.0.0","mobile":false,"os":"Windows 10","vsync_rate":59.99,"participant_id":"MAX_01","trial_duration":639},{"rt":723,"stimulus":"stimuli/VerticalHorizontal_str90.0_diff-0.05.png","response":"arrowleft","screen":"Trial","block":"VerticalHorizontal","correct_response":"arrowright","trial_type":"image-keyboard-response","trial_index":167,"time_elapsed":213012,"internal_node_id":"0.0-6.0-2.0-1.5","screen_height":764,"screen_width":1601,"browser":"chrome","browser_version":"103.0.0","mobile":false,"os":"Windows 10","vsync_rate":59.99,"participant_id":"MAX_01","prestimulus_duration":648,"correct":false,"type":"VerticalHorizontal","illusion_strength":90,"illusion_difference":-0.05,"block_number":3,"trial_number":6},{"rt":null,"stimulus":"<div style=\"font-size:60px;\">+</div>","response":null,"screen":"fixation","trial_type":"html-keyboard-response","trial_index":168,"time_elapsed":213679,"internal_node_id":"0.0-6.0-2.0-0.6","screen_height":764,"screen_width":1601,"browser":"chrome","browser_version":"103.0.0","mobile":false,"os":"Windows 10","vsync_rate":59.99,"participant_id":"MAX_01","trial_duration":665},{"rt":919,"stimulus":"stimuli/VerticalHorizontal_str18.0_diff0.12.png","response":"arrowleft","screen":"Trial","block":"VerticalHorizontal","correct_response":"arrowleft","trial_type":"image-keyboard-response","trial_index":169,"time_elapsed":214600,"internal_node_id":"0.0-6.0-2.0-1.6","screen_height":764,"screen_width":1601,"browser":"chrome","browser_version":"103.0.0","mobile":false,"os":"Windows 10","vsync_rate":59.99,"participant_id":"MAX_01","prestimulus_duration":667,"correct":true,"type":"VerticalHorizontal","illusion_strength":18,"illusion_difference":0.125,"block_number":3,"trial_number":7},{"rt":null,"stimulus":"<div style=\"font-size:60px;\">+</div>","response":null,"screen":"fixation","trial_type":"html-keyboard-response","trial_index":170,"time_elapsed":215084,"internal_node_id":"0.0-6.0-2.0-0.7","screen_height":764,"screen_width":1601,"browser":"chrome","browser_version":"103.0.0","mobile":false,"os":"Windows 10","vsync_rate":59.99,"participant_id":"MAX_01","trial_duration":481},{"rt":1572,"stimulus":"stimuli/VerticalHorizontal_str90.0_diff0.05.png","response":"arrowright","screen":"Trial","block":"VerticalHorizontal","correct_response":"arrowleft","trial_type":"image-keyboard-response","trial_index":171,"time_elapsed":216658,"internal_node_id":"0.0-6.0-2.0-1.7","screen_height":764,"screen_width":1601,"browser":"chrome","browser_version":"103.0.0","mobile":false,"os":"Windows 10","vsync_rate":59.99,"participant_id":"MAX_01","prestimulus_duration":484,"correct":false,"type":"VerticalHorizontal","illusion_strength":90,"illusion_difference":0.05,"block_number":3,"trial_number":8},{"rt":null,"stimulus":"<div style=\"font-size:60px;\">+</div>","response":null,"screen":"fixation","trial_type":"html-keyboard-response","trial_index":172,"time_elapsed":216955,"internal_node_id":"0.0-6.0-2.0-0.8","screen_height":764,"screen_width":1601,"browser":"chrome","browser_version":"103.0.0","mobile":false,"os":"Windows 10","vsync_rate":59.99,"participant_id":"MAX_01","trial_duration":296},{"rt":853,"stimulus":"stimuli/VerticalHorizontal_str-54.0_diff0.25.png","response":"arrowleft","screen":"Trial","block":"VerticalHorizontal","correct_response":"arrowleft","trial_type":"image-keyboard-response","trial_index":173,"time_elapsed":217808,"internal_node_id":"0.0-6.0-2.0-1.8","screen_height":764,"screen_width":1601,"browser":"chrome","browser_version":"103.0.0","mobile":false,"os":"Windows 10","vsync_rate":59.99,"participant_id":"MAX_01","prestimulus_duration":297,"correct":true,"type":"VerticalHorizontal","illusion_strength":-54,"illusion_difference":0.25,"block_number":3,"trial_number":9},{"rt":null,"stimulus":"<div style=\"font-size:60px;\">+</div>","response":null,"screen":"fixation","trial_type":"html-keyboard-response","trial_index":174,"time_elapsed":218767,"internal_node_id":"0.0-6.0-2.0-0.9","screen_height":764,"screen_width":1601,"browser":"chrome","browser_version":"103.0.0","mobile":false,"os":"Windows 10","vsync_rate":59.99,"participant_id":"MAX_01","trial_duration":948},{"rt":952,"stimulus":"stimuli/VerticalHorizontal_str54.0_diff0.12.png","response":"arrowright","screen":"Trial","block":"VerticalHorizontal","correct_response":"arrowleft","trial_type":"image-keyboard-response","trial_index":175,"time_elapsed":219720,"internal_node_id":"0.0-6.0-2.0-1.9","screen_height":764,"screen_width":1601,"browser":"chrome","browser_version":"103.0.0","mobile":false,"os":"Windows 10","vsync_rate":59.99,"participant_id":"MAX_01","prestimulus_duration":959,"correct":false,"type":"VerticalHorizontal","illusion_strength":54,"illusion_difference":0.125,"block_number":3,"trial_number":10},{"rt":null,"stimulus":"<div style=\"font-size:60px;\">+</div>","response":null,"screen":"fixation","trial_type":"html-keyboard-response","trial_index":176,"time_elapsed":220546,"internal_node_id":"0.0-6.0-2.0-0.10","screen_height":764,"screen_width":1601,"browser":"chrome","browser_version":"103.0.0","mobile":false,"os":"Windows 10","vsync_rate":59.99,"participant_id":"MAX_01","trial_duration":817},{"rt":734,"stimulus":"stimuli/VerticalHorizontal_str18.0_diff-0.12.png","response":"arrowleft","screen":"Trial","block":"VerticalHorizontal","correct_response":"arrowright","trial_type":"image-keyboard-response","trial_index":177,"time_elapsed":221282,"internal_node_id":"0.0-6.0-2.0-1.10","screen_height":764,"screen_width":1601,"browser":"chrome","browser_version":"103.0.0","mobile":false,"os":"Windows 10","vsync_rate":59.99,"participant_id":"MAX_01","prestimulus_duration":826,"correct":false,"type":"VerticalHorizontal","illusion_strength":18,"illusion_difference":-0.125,"block_number":3,"trial_number":11},{"rt":null,"stimulus":"<div style=\"font-size:60px;\">+</div>","response":null,"screen":"fixation","trial_type":"html-keyboard-response","trial_index":178,"time_elapsed":222067,"internal_node_id":"0.0-6.0-2.0-0.11","screen_height":764,"screen_width":1601,"browser":"chrome","browser_version":"103.0.0","mobile":false,"os":"Windows 10","vsync_rate":59.99,"participant_id":"MAX_01","trial_duration":768},{"rt":831,"stimulus":"stimuli/VerticalHorizontal_str-90.0_diff-0.25.png","response":"arrowright","screen":"Trial","block":"VerticalHorizontal","correct_response":"arrowright","trial_type":"image-keyboard-response","trial_index":179,"time_elapsed":222898,"internal_node_id":"0.0-6.0-2.0-1.11","screen_height":764,"screen_width":1601,"browser":"chrome","browser_version":"103.0.0","mobile":false,"os":"Windows 10","vsync_rate":59.99,"participant_id":"MAX_01","prestimulus_duration":785,"correct":true,"type":"VerticalHorizontal","illusion_strength":-90,"illusion_difference":-0.25,"block_number":3,"trial_number":12},{"rt":null,"stimulus":"<div style=\"font-size:60px;\">+</div>","response":null,"screen":"fixation","trial_type":"html-keyboard-response","trial_index":180,"time_elapsed":223705,"internal_node_id":"0.0-6.0-2.0-0.12","screen_height":764,"screen_width":1601,"browser":"chrome","browser_version":"103.0.0","mobile":false,"os":"Windows 10","vsync_rate":59.99,"participant_id":"MAX_01","trial_duration":803},{"rt":913,"stimulus":"stimuli/VerticalHorizontal_str90.0_diff0.12.png","response":"arrowright","screen":"Trial","block":"VerticalHorizontal","correct_response":"arrowleft","trial_type":"image-keyboard-response","trial_index":181,"time_elapsed":224619,"internal_node_id":"0.0-6.0-2.0-1.12","screen_height":764,"screen_width":1601,"browser":"chrome","browser_version":"103.0.0","mobile":false,"os":"Windows 10","vsync_rate":59.99,"participant_id":"MAX_01","prestimulus_duration":807,"correct":false,"type":"VerticalHorizontal","illusion_strength":90,"illusion_difference":0.125,"block_number":3,"trial_number":13},{"rt":null,"stimulus":"<div style=\"font-size:60px;\">+</div>","response":null,"screen":"fixation","trial_type":"html-keyboard-response","trial_index":182,"time_elapsed":225610,"internal_node_id":"0.0-6.0-2.0-0.13","screen_height":764,"screen_width":1601,"browser":"chrome","browser_version":"103.0.0","mobile":false,"os":"Windows 10","vsync_rate":59.99,"participant_id":"MAX_01","trial_duration":988},{"rt":685,"stimulus":"stimuli/VerticalHorizontal_str-54.0_diff0.12.png","response":"arrowleft","screen":"Trial","block":"VerticalHorizontal","correct_response":"arrowleft","trial_type":"image-keyboard-response","trial_index":183,"time_elapsed":226299,"internal_node_id":"0.0-6.0-2.0-1.13","screen_height":764,"screen_width":1601,"browser":"chrome","browser_version":"103.0.0","mobile":false,"os":"Windows 10","vsync_rate":59.99,"participant_id":"MAX_01","prestimulus_duration":991,"correct":true,"type":"VerticalHorizontal","illusion_strength":-54,"illusion_difference":0.125,"block_number":3,"trial_number":14},{"rt":null,"stimulus":"<div style=\"font-size:60px;\">+</div>","response":null,"screen":"fixation","trial_type":"html-keyboard-response","trial_index":184,"time_elapsed":226987,"internal_node_id":"0.0-6.0-2.0-0.14","screen_height":764,"screen_width":1601,"browser":"chrome","browser_version":"103.0.0","mobile":false,"os":"Windows 10","vsync_rate":59.99,"participant_id":"MAX_01","trial_duration":683},{"rt":700,"stimulus":"stimuli/VerticalHorizontal_str-18.0_diff-0.25.png","response":"arrowright","screen":"Trial","block":"VerticalHorizontal","correct_response":"arrowright","trial_type":"image-keyboard-response","trial_index":185,"time_elapsed":227688,"internal_node_id":"0.0-6.0-2.0-1.14","screen_height":764,"screen_width":1601,"browser":"chrome","browser_version":"103.0.0","mobile":false,"os":"Windows 10","vsync_rate":59.99,"participant_id":"MAX_01","prestimulus_duration":688,"correct":true,"type":"VerticalHorizontal","illusion_strength":-18,"illusion_difference":-0.25,"block_number":3,"trial_number":15},{"rt":null,"stimulus":"<div style=\"font-size:60px;\">+</div>","response":null,"screen":"fixation","trial_type":"html-keyboard-response","trial_index":186,"time_elapsed":228553,"internal_node_id":"0.0-6.0-2.0-0.15","screen_height":764,"screen_width":1601,"browser":"chrome","browser_version":"103.0.0","mobile":false,"os":"Windows 10","vsync_rate":59.99,"participant_id":"MAX_01","trial_duration":853},{"rt":727,"stimulus":"stimuli/VerticalHorizontal_str-54.0_diff-0.05.png","response":"arrowright","screen":"Trial","block":"VerticalHorizontal","correct_response":"arrowright","trial_type":"image-keyboard-response","trial_index":187,"time_elapsed":229282,"internal_node_id":"0.0-6.0-2.0-1.15","screen_height":764,"screen_width":1601,"browser":"chrome","browser_version":"103.0.0","mobile":false,"os":"Windows 10","vsync_rate":59.99,"participant_id":"MAX_01","prestimulus_duration":865,"correct":true,"type":"VerticalHorizontal","illusion_strength":-54,"illusion_difference":-0.05,"block_number":3,"trial_number":16},{"rt":null,"stimulus":"<div style=\"font-size:60px;\">+</div>","response":null,"screen":"fixation","trial_type":"html-keyboard-response","trial_index":188,"time_elapsed":229953,"internal_node_id":"0.0-6.0-2.0-0.16","screen_height":764,"screen_width":1601,"browser":"chrome","browser_version":"103.0.0","mobile":false,"os":"Windows 10","vsync_rate":59.99,"participant_id":"MAX_01","trial_duration":661},{"rt":814,"stimulus":"stimuli/VerticalHorizontal_str54.0_diff0.05.png","response":"arrowright","screen":"Trial","block":"VerticalHorizontal","correct_response":"arrowleft","trial_type":"image-keyboard-response","trial_index":189,"time_elapsed":230770,"internal_node_id":"0.0-6.0-2.0-1.16","screen_height":764,"screen_width":1601,"browser":"chrome","browser_version":"103.0.0","mobile":false,"os":"Windows 10","vsync_rate":59.99,"participant_id":"MAX_01","prestimulus_duration":671,"correct":false,"type":"VerticalHorizontal","illusion_strength":54,"illusion_difference":0.05,"block_number":3,"trial_number":17},{"rt":null,"stimulus":"<div style=\"font-size:60px;\">+</div>","response":null,"screen":"fixation","trial_type":"html-keyboard-response","trial_index":190,"time_elapsed":231655,"internal_node_id":"0.0-6.0-2.0-0.17","screen_height":764,"screen_width":1601,"browser":"chrome","browser_version":"103.0.0","mobile":false,"os":"Windows 10","vsync_rate":59.99,"participant_id":"MAX_01","trial_duration":869},{"rt":775,"stimulus":"stimuli/VerticalHorizontal_str90.0_diff0.25.png","response":"arrowleft","screen":"Trial","block":"VerticalHorizontal","correct_response":"arrowleft","trial_type":"image-keyboard-response","trial_index":191,"time_elapsed":232432,"internal_node_id":"0.0-6.0-2.0-1.17","screen_height":764,"screen_width":1601,"browser":"chrome","browser_version":"103.0.0","mobile":false,"os":"Windows 10","vsync_rate":59.99,"participant_id":"MAX_01","prestimulus_duration":885,"correct":true,"type":"VerticalHorizontal","illusion_strength":90,"illusion_difference":0.25,"block_number":3,"trial_number":18},{"rt":null,"stimulus":"<div style=\"font-size:60px;\">+</div>","response":null,"screen":"fixation","trial_type":"html-keyboard-response","trial_index":192,"time_elapsed":233186,"internal_node_id":"0.0-6.0-2.0-0.18","screen_height":764,"screen_width":1601,"browser":"chrome","browser_version":"103.0.0","mobile":false,"os":"Windows 10","vsync_rate":59.99,"participant_id":"MAX_01","trial_duration":737},{"rt":966,"stimulus":"stimuli/VerticalHorizontal_str18.0_diff0.25.png","response":"arrowleft","screen":"Trial","block":"VerticalHorizontal","correct_response":"arrowleft","trial_type":"image-keyboard-response","trial_index":193,"time_elapsed":234154,"internal_node_id":"0.0-6.0-2.0-1.18","screen_height":764,"screen_width":1601,"browser":"chrome","browser_version":"103.0.0","mobile":false,"os":"Windows 10","vsync_rate":59.99,"participant_id":"MAX_01","prestimulus_duration":754,"correct":true,"type":"VerticalHorizontal","illusion_strength":18,"illusion_difference":0.25,"block_number":3,"trial_number":19},{"rt":null,"stimulus":"<div style=\"font-size:60px;\">+</div>","response":null,"screen":"fixation","trial_type":"html-keyboard-response","trial_index":194,"time_elapsed":234502,"internal_node_id":"0.0-6.0-2.0-0.19","screen_height":764,"screen_width":1601,"browser":"chrome","browser_version":"103.0.0","mobile":false,"os":"Windows 10","vsync_rate":59.99,"participant_id":"MAX_01","trial_duration":335},{"rt":922,"stimulus":"stimuli/VerticalHorizontal_str18.0_diff0.05.png","response":"arrowright","screen":"Trial","block":"VerticalHorizontal","correct_response":"arrowleft","trial_type":"image-keyboard-response","trial_index":195,"time_elapsed":235426,"internal_node_id":"0.0-6.0-2.0-1.19","screen_height":764,"screen_width":1601,"browser":"chrome","browser_version":"103.0.0","mobile":false,"os":"Windows 10","vsync_rate":59.99,"participant_id":"MAX_01","prestimulus_duration":348,"correct":false,"type":"VerticalHorizontal","illusion_strength":18,"illusion_difference":0.05,"block_number":3,"trial_number":20},{"rt":null,"stimulus":"<div style=\"font-size:60px;\">+</div>","response":null,"screen":"fixation","trial_type":"html-keyboard-response","trial_index":196,"time_elapsed":236093,"internal_node_id":"0.0-6.0-2.0-0.20","screen_height":764,"screen_width":1601,"browser":"chrome","browser_version":"103.0.0","mobile":false,"os":"Windows 10","vsync_rate":59.99,"participant_id":"MAX_01","trial_duration":649},{"rt":834,"stimulus":"stimuli/VerticalHorizontal_str-18.0_diff-0.12.png","response":"arrowright","screen":"Trial","block":"VerticalHorizontal","correct_response":"arrowright","trial_type":"image-keyboard-response","trial_index":197,"time_elapsed":236928,"internal_node_id":"0.0-6.0-2.0-1.20","screen_height":764,"screen_width":1601,"browser":"chrome","browser_version":"103.0.0","mobile":false,"os":"Windows 10","vsync_rate":59.99,"participant_id":"MAX_01","prestimulus_duration":667,"correct":true,"type":"VerticalHorizontal","illusion_strength":-18,"illusion_difference":-0.125,"block_number":3,"trial_number":21},{"rt":null,"stimulus":"<div style=\"font-size:60px;\">+</div>","response":null,"screen":"fixation","trial_type":"html-keyboard-response","trial_index":198,"time_elapsed":237929,"internal_node_id":"0.0-6.