[{"success":true,"trial_type":"fullscreen","trial_index":0,"time_elapsed":2733,"internal_node_id":"0.0-0.0","screen_height":764,"screen_width":1601,"browser":"chrome","browser_version":"103.0.0","mobile":false,"os":"Windows 10","vsync_rate":59.88,"participant_id":"MAX_01"},{"width":1601,"height":764,"webaudio":true,"browser":"chrome","browser_version":"103.0.0","mobile":false,"os":"Windows 10","fullscreen":true,"vsync_rate":59.88,"webcam":true,"microphone":true,"screen":"browser_info","trial_type":"browser-check","trial_index":1,"time_elapsed":3749,"internal_node_id":"0.0-1.0","screen_height":764,"screen_width":1601,"participant_id":"MAX_01"},{"rt":27234,"response":{"Participant_ID":"MAX_01"},"screen":"participant_info","version":"1.0","date":"12/07/2022","time":"12:26:55","trial_type":"survey-text","trial_index":2,"time_elapsed":31002,"internal_node_id":"0.0-2.0","screen_height":764,"screen_width":1601,"browser":"chrome","browser_version":"103.0.0","mobile":false,"os":"Windows 10","vsync_rate":59.88,"participant_id":"MAX_01"},{"rt":12918,"stimulus":"<p><b>The Illusion Game</b></p><p>In this reaction-time game, you will need to be <b>as fast as possible</b> and make correct responses by resisting different visual illusions.</p><p>We will show you examples of each illusion before each block.</p><p>Remember, your goal is to be as <b>fast</b> and <b>accurate</b> as possible. Good luck!</p>","response":0,"screen":"general_instructions","trial_type":"html-button-response","trial_index":3,"time_elapsed":43922,"internal_node_id":"0.0-3.0","screen_height":764,"screen_width":1601,"browser":"chrome","browser_version":"103.0.0","mobile":false,"os":"Windows 10","vsync_rate":59.88,"participant_id":"MAX_01"},{"success":true,"timeout":false,"failed_images":[],"failed_audio":[],"failed_video":[],"trial_type":"preload","trial_index":4,"time_elapsed":43924,"internal_node_id":"0.0-4.0-0.0","screen_height":764,"screen_width":1601,"browser":"chrome","browser_version":"103.0.0","mobile":false,"os":"Windows 10","vsync_rate":59.88,"participant_id":"MAX_01"},{"rt":14597,"stimulus":"<p><b>Part 1</b></p><p>In this part, one vertical red line will appear in a square.</p><p>Your task is to tell <b>which direction</b> is the red line leaning, as fast as you can, and without making errors.</p><p>Don't get distracted by the black square!</p><p>Press <b>the LEFT or the RIGHT arrow</b> to indicate the <b>direction where the red line is leaning.</b></p><div style='float: center'><img src='utils/stimuli_demo/RodFrame_Demo.png' height='300'></img><p><img src='utils/answer/answer_leftright_keyboard.PNG' height='150'></img></p><p class='small'>In this example, the correct answer is the <b>LEFT arrow</b>.</p></div><p>Are you ready? <b>Press ENTER to start</b></p>","response":"enter","trial_type":"html-keyboard-response","trial_index":5,"time_elapsed":58522,"internal_node_id":"0.0-4.0-1.0","screen_height":764,"screen_width":1601,"browser":"chrome","browser_version":"103.0.0","mobile":false,"os":"Windows 10","vsync_rate":59.88,"participant_id":"MAX_01"},{"rt":null,"stimulus":"<div style=\"font-size:60px;\">+</div>","response":null,"screen":"fixation","trial_type":"html-keyboard-response","trial_index":6,"time_elapsed":59559,"internal_node_id":"0.0-4.0-2.0-0.0","screen_height":764,"screen_width":1601,"browser":"chrome","browser_version":"103.0.0","mobile":false,"os":"Windows 10","vsync_rate":59.88,"participant_id":"MAX_01","trial_duration":516},{"rt":1328,"stimulus":"stimuli/RodFrame_str30.0_diff4.0.png","response":"arrowleft","screen":"Trial","block":"RodFrame","correct_response":"arrowright","trial_type":"image-keyboard-response","trial_index":7,"time_elapsed":60889,"internal_node_id":"0.0-4.0-2.0-1.0","screen_height":764,"screen_width":1601,"browser":"chrome","browser_version":"103.0.0","mobile":false,"os":"Windows 10","vsync_rate":59.88,"participant_id":"MAX_01","prestimulus_duration":1037,"correct":false,"type":"RodFrame","illusion_strength":30,"illusion_difference":4,"block_number":1,"trial_number":1},{"rt":null,"stimulus":"<div style=\"font-size:60px;\">+</div>","response":null,"screen":"fixation","trial_type":"html-keyboard-response","trial_index":8,"time_elapsed":61656,"internal_node_id":"0.0-4.0-2.0-0.1","screen_height":764,"screen_width":1601,"browser":"chrome","browser_version":"103.0.0","mobile":false,"os":"Windows 10","vsync_rate":59.88,"participant_id":"MAX_01","trial_duration":755},{"rt":896,"stimulus":"stimuli/RodFrame_str-6.0_diff-12.0.png","response":"arrowleft","screen":"Trial","block":"RodFrame","correct_response":"arrowleft","trial_type":"image-keyboard-response","trial_index":9,"time_elapsed":62555,"internal_node_id":"0.0-4.0-2.0-1.1","screen_height":764,"screen_width":1601,"browser":"chrome","browser_version":"103.0.0","mobile":false,"os":"Windows 10","vsync_rate":59.88,"participant_id":"MAX_01","prestimulus_duration":767,"correct":true,"type":"RodFrame","illusion_strength":-6,"illusion_difference":-12,"block_number":1,"trial_number":2},{"rt":null,"stimulus":"<div style=\"font-size:60px;\">+</div>","response":null,"screen":"fixation","trial_type":"html-keyboard-response","trial_index":10,"time_elapsed":62920,"internal_node_id":"0.0-4.0-2.0-0.2","screen_height":764,"screen_width":1601,"browser":"chrome","browser_version":"103.0.0","mobile":false,"os":"Windows 10","vsync_rate":59.88,"participant_id":"MAX_01","trial_duration":361},{"rt":952,"stimulus":"stimuli/RodFrame_str-6.0_diff12.0.png","response":"arrowright","screen":"Trial","block":"RodFrame","correct_response":"arrowright","trial_type":"image-keyboard-response","trial_index":11,"time_elapsed":63873,"internal_node_id":"0.0-4.0-2.0-1.2","screen_height":764,"screen_width":1601,"browser":"chrome","browser_version":"103.0.0","mobile":false,"os":"Windows 10","vsync_rate":59.88,"participant_id":"MAX_01","prestimulus_duration":365,"correct":true,"type":"RodFrame","illusion_strength":-6,"illusion_difference":12,"block_number":1,"trial_number":3},{"rt":null,"stimulus":"<div style=\"font-size:60px;\">+</div>","response":null,"screen":"fixation","trial_type":"html-keyboard-response","trial_index":12,"time_elapsed":64300,"internal_node_id":"0.0-4.0-2.0-0.3","screen_height":764,"screen_width":1601,"browser":"chrome","browser_version":"103.0.0","mobile":false,"os":"Windows 10","vsync_rate":59.88,"participant_id":"MAX_01","trial_duration":425},{"rt":982,"stimulus":"stimuli/RodFrame_str18.0_diff12.0.png","response":"arrowright","screen":"Trial","block":"RodFrame","correct_response":"arrowright","trial_type":"image-keyboard-response","trial_index":13,"time_elapsed":65283,"internal_node_id":"0.0-4.0-2.0-1.3","screen_height":764,"screen_width":1601,"browser":"chrome","browser_version":"103.0.0","mobile":false,"os":"Windows 10","vsync_rate":59.88,"participant_id":"MAX_01","prestimulus_duration":427,"correct":true,"type":"RodFrame","illusion_strength":18,"illusion_difference":12,"block_number":1,"trial_number":4},{"rt":null,"stimulus":"<div style=\"font-size:60px;\">+</div>","response":null,"screen":"fixation","trial_type":"html-keyboard-response","trial_index":14,"time_elapsed":65577,"internal_node_id":"0.0-4.0-2.0-0.4","screen_height":764,"screen_width":1601,"browser":"chrome","browser_version":"103.0.0","mobile":false,"os":"Windows 10","vsync_rate":59.88,"participant_id":"MAX_01","trial_duration":287},{"rt":1342,"stimulus":"stimuli/RodFrame_str6.0_diff4.0.png","response":"arrowleft","screen":"Trial","block":"RodFrame","correct_response":"arrowright","trial_type":"image-keyboard-response","trial_index":15,"time_elapsed":66921,"internal_node_id":"0.0-4.0-2.0-1.4","screen_height":764,"screen_width":1601,"browser":"chrome","browser_version":"103.0.0","mobile":false,"os":"Windows 10","vsync_rate":59.88,"participant_id":"MAX_01","prestimulus_duration":294,"correct":false,"type":"RodFrame","illusion_strength":6,"illusion_difference":4,"block_number":1,"trial_number":5},{"rt":null,"stimulus":"<div style=\"font-size:60px;\">+</div>","response":null,"screen":"fixation","trial_type":"html-keyboard-response","trial_index":16,"time_elapsed":67564,"internal_node_id":"0.0-4.0-2.0-0.5","screen_height":764,"screen_width":1601,"browser":"chrome","browser_version":"103.0.0","mobile":false,"os":"Windows 10","vsync_rate":59.88,"participant_id":"MAX_01","trial_duration":627},{"rt":910,"stimulus":"stimuli/RodFrame_str-18.0_diff20.0.png","response":"arrowright","screen":"Trial","block":"RodFrame","correct_response":"arrowright","trial_type":"image-keyboard-response","trial_index":17,"time_elapsed":68475,"internal_node_id":"0.0-4.0-2.0-1.5","screen_height":764,"screen_width":1601,"browser":"chrome","browser_version":"103.0.0","mobile":false,"os":"Windows 10","vsync_rate":59.88,"participant_id":"MAX_01","prestimulus_duration":643,"correct":true,"type":"RodFrame","illusion_strength":-18,"illusion_difference":20,"block_number":1,"trial_number":6},{"rt":null,"stimulus":"<div style=\"font-size:60px;\">+</div>","response":null,"screen":"fixation","trial_type":"html-keyboard-response","trial_index":18,"time_elapsed":69286,"internal_node_id":"0.0-4.0-2.0-0.6","screen_height":764,"screen_width":1601,"browser":"chrome","browser_version":"103.0.0","mobile":false,"os":"Windows 10","vsync_rate":59.88,"participant_id":"MAX_01","trial_duration":794},{"rt":1075,"stimulus":"stimuli/RodFrame_str-18.0_diff-4.0.png","response":"arrowleft","screen":"Trial","block":"RodFrame","correct_response":"arrowleft","trial_type":"image-keyboard-response","trial_index":19,"time_elapsed":70364,"internal_node_id":"0.0-4.0-2.0-1.6","screen_height":764,"screen_width":1601,"browser":"chrome","browser_version":"103.0.0","mobile":false,"os":"Windows 10","vsync_rate":59.88,"participant_id":"MAX_01","prestimulus_duration":811,"correct":true,"type":"RodFrame","illusion_strength":-18,"illusion_difference":-4,"block_number":1,"trial_number":7},{"rt":null,"stimulus":"<div style=\"font-size:60px;\">+</div>","response":null,"screen":"fixation","trial_type":"html-keyboard-response","trial_index":20,"time_elapsed":70885,"internal_node_id":"0.0-4.0-2.0-0.7","screen_height":764,"screen_width":1601,"browser":"chrome","browser_version":"103.0.0","mobile":false,"os":"Windows 10","vsync_rate":59.88,"participant_id":"MAX_01","trial_duration":513},{"rt":858,"stimulus":"stimuli/RodFrame_str30.0_diff-20.0.png","response":"arrowleft","screen":"Trial","block":"RodFrame","correct_response":"arrowleft","trial_type":"image-keyboard-response","trial_index":21,"time_elapsed":71746,"internal_node_id":"0.0-4.0-2.0-1.7","screen_height":764,"screen_width":1601,"browser":"chrome","browser_version":"103.0.0","mobile":false,"os":"Windows 10","vsync_rate":59.88,"participant_id":"MAX_01","prestimulus_duration":521,"correct":true,"type":"RodFrame","illusion_strength":30,"illusion_difference":-20,"block_number":1,"trial_number":8},{"rt":null,"stimulus":"<div style=\"font-size:60px;\">+</div>","response":null,"screen":"fixation","trial_type":"html-keyboard-response","trial_index":22,"time_elapsed":72528,"internal_node_id":"0.0-4.0-2.0-0.8","screen_height":764,"screen_width":1601,"browser":"chrome","browser_version":"103.0.0","mobile":false,"os":"Windows 10","vsync_rate":59.88,"participant_id":"MAX_01","trial_duration":771},{"rt":798,"stimulus":"stimuli/RodFrame_str18.0_diff-12.0.png","response":"arrowleft","screen":"Trial","block":"RodFrame","correct_response":"arrowleft","trial_type":"image-keyboard-response","trial_index":23,"time_elapsed":73329,"internal_node_id":"0.0-4.0-2.0-1.8","screen_height":764,"screen_width":1601,"browser":"chrome","browser_version":"103.0.0","mobile":false,"os":"Windows 10","vsync_rate":59.88,"participant_id":"MAX_01","prestimulus_duration":782,"correct":true,"type":"RodFrame","illusion_strength":18,"illusion_difference":-12,"block_number":1,"trial_number":9},{"rt":null,"stimulus":"<div style=\"font-size:60px;\">+</div>","response":null,"screen":"fixation","trial_type":"html-keyboard-response","trial_index":24,"time_elapsed":74092,"internal_node_id":"0.0-4.0-2.0-0.9","screen_height":764,"screen_width":1601,"browser":"chrome","browser_version":"103.0.0","mobile":false,"os":"Windows 10","vsync_rate":59.88,"participant_id":"MAX_01","trial_duration":750},{"rt":749,"stimulus":"stimuli/RodFrame_str-6.0_diff20.0.png","response":"arrowright","screen":"Trial","block":"RodFrame","correct_response":"arrowright","trial_type":"image-keyboard-response","trial_index":25,"time_elapsed":74844,"internal_node_id":"0.0-4.0-2.0-1.9","screen_height":764,"screen_width":1601,"browser":"chrome","browser_version":"103.0.0","mobile":false,"os":"Windows 10","vsync_rate":59.88,"participant_id":"MAX_01","prestimulus_duration":763,"correct":true,"type":"RodFrame","illusion_strength":-6,"illusion_difference":20,"block_number":1,"trial_number":10},{"rt":null,"stimulus":"<div style=\"font-size:60px;\">+</div>","response":null,"screen":"fixation","trial_type":"html-keyboard-response","trial_index":26,"time_elapsed":75371,"internal_node_id":"0.0-4.0-2.0-0.10","screen_height":764,"screen_width":1601,"browser":"chrome","browser_version":"103.0.0","mobile":false,"os":"Windows 10","vsync_rate":59.88,"participant_id":"MAX_01","trial_duration":509},{"rt":716,"stimulus":"stimuli/RodFrame_str-30.0_diff-12.0.png","response":"arrowleft","screen":"Trial","block":"RodFrame","correct_response":"arrowleft","trial_type":"image-keyboard-response","trial_index":27,"time_elapsed":76089,"internal_node_id":"0.0-4.0-2.0-1.10","screen_height":764,"screen_width":1601,"browser":"chrome","browser_version":"103.0.0","mobile":false,"os":"Windows 10","vsync_rate":59.88,"participant_id":"MAX_01","prestimulus_duration":527,"correct":true,"type":"RodFrame","illusion_strength":-30,"illusion_difference":-12,"block_number":1,"trial_number":11},{"rt":null,"stimulus":"<div style=\"font-size:60px;\">+</div>","response":null,"screen":"fixation","trial_type":"html-keyboard-response","trial_index":28,"time_elapsed":76624,"internal_node_id":"0.0-4.0-2.0-0.11","screen_height":764,"screen_width":1601,"browser":"chrome","browser_version":"103.0.0","mobile":false,"os":"Windows 10","vsync_rate":59.88,"participant_id":"MAX_01","trial_duration":522},{"rt":706,"stimulus":"stimuli/RodFrame_str-18.0_diff-12.0.png","response":"arrowleft","screen":"Trial","block":"RodFrame","correct_response":"arrowleft","trial_type":"image-keyboard-response","trial_index":29,"time_elapsed":77330,"internal_node_id":"0.0-4.0-2.0-1.11","screen_height":764,"screen_width":1601,"browser":"chrome","browser_version":"103.0.0","mobile":false,"os":"Windows 10","vsync_rate":59.88,"participant_id":"MAX_01","prestimulus_duration":535,"correct":true,"type":"RodFrame","illusion_strength":-18,"illusion_difference":-12,"block_number":1,"trial_number":12},{"rt":null,"stimulus":"<div style=\"font-size:60px;\">+</div>","response":null,"screen":"fixation","trial_type":"html-keyboard-response","trial_index":30,"time_elapsed":78187,"internal_node_id":"0.0-4.0-2.0-0.12","screen_height":764,"screen_width":1601,"browser":"chrome","browser_version":"103.0.0","mobile":false,"os":"Windows 10","vsync_rate":59.88,"participant_id":"MAX_01","trial_duration":849},{"rt":1071,"stimulus":"stimuli/RodFrame_str-18.0_diff12.0.png","response":"arrowright","screen":"Trial","block":"RodFrame","correct_response":"arrowright","trial_type":"image-keyboard-response","trial_index":31,"time_elapsed":79260,"internal_node_id":"0.0-4.0-2.0-1.12","screen_height":764,"screen_width":1601,"browser":"chrome","browser_version":"103.0.0","mobile":false,"os":"Windows 10","vsync_rate":59.88,"participant_id":"MAX_01","prestimulus_duration":857,"correct":true,"type":"RodFrame","illusion_strength":-18,"illusion_difference":12,"block_number":1,"trial_number":13},{"rt":null,"stimulus":"<div style=\"font-size:60px;\">+</div>","response":null,"screen":"fixation","trial_type":"html-keyboard-response","trial_index":32,"time_elapsed":79538,"internal_node_id":"0.0-4.0-2.0-0.13","screen_height":764,"screen_width":1601,"browser":"chrome","browser_version":"103.0.0","mobile":false,"os":"Windows 10","vsync_rate":59.88,"participant_id":"MAX_01","trial_duration":268},{"rt":1000,"stimulus":"stimuli/RodFrame_str30.0_diff-4.0.png","response":"arrowleft","screen":"Trial","block":"RodFrame","correct_response":"arrowleft","trial_type":"image-keyboard-response","trial_index":33,"time_elapsed":80541,"internal_node_id":"0.0-4.0-2.0-1.13","screen_height":764,"screen_width":1601,"browser":"chrome","browser_version":"103.0.0","mobile":false,"os":"Windows 10","vsync_rate":59.88,"participant_id":"MAX_01","prestimulus_duration":278,"correct":true,"type":"RodFrame","illusion_strength":30,"illusion_difference":-4,"block_number":1,"trial_number":14},{"rt":null,"stimulus":"<div style=\"font-size:60px;\">+</div>","response":null,"screen":"fixation","trial_type":"html-keyboard-response","trial_index":34,"time_elapsed":80975,"internal_node_id":"0.0-4.0-2.0-0.14","screen_height":764,"screen_width":1601,"browser":"chrome","browser_version":"103.0.0","mobile":false,"os":"Windows 10","vsync_rate":59.88,"participant_id":"MAX_01","trial_duration":424},{"rt":743,"stimulus":"stimuli/RodFrame_str-6.0_diff-20.0.png","response":"arrowleft","screen":"Trial","block":"RodFrame","correct_response":"arrowleft","trial_type":"image-keyboard-response","trial_index":35,"time_elapsed":81721,"internal_node_id":"0.0-4.0-2.0-1.14","screen_height":764,"screen_width":1601,"browser":"chrome","browser_version":"103.0.0","mobile":false,"os":"Windows 10","vsync_rate":59.88,"participant_id":"MAX_01","prestimulus_duration":434,"correct":true,"type":"RodFrame","illusion_strength":-6,"illusion_difference":-20,"block_number":1,"trial_number":15},{"rt":null,"stimulus":"<div style=\"font-size:60px;\">+</div>","response":null,"screen":"fixation","trial_type":"html-keyboard-response","trial_index":36,"time_elapsed":82155,"internal_node_id":"0.0-4.0-2.0-0.15","screen_height":764,"screen_width":1601,"browser":"chrome","browser_version":"103.0.0","mobile":false,"os":"Windows 10","vsync_rate":59.88,"participant_id":"MAX_01","trial_duration":419},{"rt":838,"stimulus":"stimuli/RodFrame_str-6.0_diff4.0.png","response":"arrowright","screen":"Trial","block":"RodFrame","correct_response":"arrowright","trial_type":"image-keyboard-response","trial_index":37,"time_elapsed":82995,"internal_node_id":"0.0-4.0-2.0-1.15","screen_height":764,"screen_width":1601,"browser":"chrome","browser_version":"103.0.0","mobile":false,"os":"Windows 10","vsync_rate":59.88,"participant_id":"MAX_01","prestimulus_duration":434,"correct":true,"type":"RodFrame","illusion_strength":-6,"illusion_difference":4,"block_number":1,"trial_number":16},{"rt":null,"stimulus":"<div style=\"font-size:60px;\">+</div>","response":null,"screen":"fixation","trial_type":"html-keyboard-response","trial_index":38,"time_elapsed":83622,"internal_node_id":"0.0-4.0-2.0-0.16","screen_height":764,"screen_width":1601,"browser":"chrome","browser_version":"103.0.0","mobile":false,"os":"Windows 10","vsync_rate":59.88,"participant_id":"MAX_01","trial_duration":623},{"rt":805,"stimulus":"stimuli/RodFrame_str6.0_diff-12.0.png","response":"arrowleft","screen":"Trial","block":"RodFrame","correct_response":"arrowleft","trial_type":"image-keyboard-response","trial_index":39,"time_elapsed":84427,"internal_node_id":"0.0-4.0-2.0-1.16","screen_height":764,"screen_width":1601,"browser":"chrome","browser_version":"103.0.0","mobile":false,"os":"Windows 10","vsync_rate":59.88,"participant_id":"MAX_01","prestimulus_duration":627,"correct":true,"type":"RodFrame","illusion_strength":6,"illusion_difference":-12,"block_number":1,"trial_number":17},{"rt":null,"stimulus":"<div style=\"font-size:60px;\">+</div>","response":null,"screen":"fixation","trial_type":"html-keyboard-response","trial_index":40,"time_elapsed":85314,"internal_node_id":"0.0-4.0-2.0-0.17","screen_height":764,"screen_width":1601,"browser":"chrome","browser_version":"103.0.0","mobile":false,"os":"Windows 10","vsync_rate":59.88,"participant_id":"MAX_01","trial_duration":873},{"rt":671,"stimulus":"stimuli/RodFrame_str-30.0_diff20.0.png","response":"arrowright","screen":"Trial","block":"RodFrame","correct_response":"arrowright","trial_type":"image-keyboard-response","trial_index":41,"time_elapsed":85987,"internal_node_id":"0.0-4.0-2.0-1.17","screen_height":764,"screen_width":1601,"browser":"chrome","browser_version":"103.0.0","mobile":false,"os":"Windows 10","vsync_rate":59.88,"participant_id":"MAX_01","prestimulus_duration":887,"correct":true,"type":"RodFrame","illusion_strength":-30,"illusion_difference":20,"block_number":1,"trial_number":18},{"rt":null,"stimulus":"<div style=\"font-size:60px;\">+</div>","response":null,"screen":"fixation","trial_type":"html-keyboard-response","trial_index":42,"time_elapsed":86688,"internal_node_id":"0.0-4.0-2.0-0.18","screen_height":764,"screen_width":1601,"browser":"chrome","browser_version":"103.0.0","mobile":false,"os":"Windows 10","vsync_rate":59.88,"participant_id":"MAX_01","trial_duration":689},{"rt":730,"stimulus":"stimuli/RodFrame_str18.0_diff4.0.png","response":"arrowleft","screen":"Trial","block":"RodFrame","correct_response":"arrowright","trial_type":"image-keyboard-response","trial_index":43,"time_elapsed":87420,"internal_node_id":"0.0-4.0-2.0-1.18","screen_height":764,"screen_width":1601,"browser":"chrome","browser_version":"103.0.0","mobile":false,"os":"Windows 10","vsync_rate":59.88,"participant_id":"MAX_01","prestimulus_duration":701,"correct":false,"type":"RodFrame","illusion_strength":18,"illusion_difference":4,"block_number":1,"trial_number":19},{"rt":null,"stimulus":"<div style=\"font-size:60px;\">+</div>","response":null,"screen":"fixation","trial_type":"html-keyboard-response","trial_index":44,"time_elapsed":88389,"internal_node_id":"0.0-4.0-2.0-0.19","screen_height":764,"screen_width":1601,"browser":"chrome","browser_version":"103.0.0","mobile":false,"os":"Windows 10","vsync_rate":59.88,"participant_id":"MAX_01","trial_duration":965},{"rt":1265,"stimulus":"stimuli/RodFrame_str30.0_diff12.0.png","response":"arrowright","screen":"Trial","block":"RodFrame","correct_response":"arrowright","trial_type":"image-keyboard-response","trial_index":45,"time_elapsed":89657,"internal_node_id":"0.0-4.0-2.0-1.19","screen_height":764,"screen_width":1601,"browser":"chrome","browser_version":"103.0.0","mobile":false,"os":"Windows 10","vsync_rate":59.88,"participant_id":"MAX_01","prestimulus_duration":969,"correct":true,"type":"RodFrame","illusion_strength":30,"illusion_difference":12,"block_number":1,"trial_number":20},{"rt":null,"stimulus":"<div style=\"font-size:60px;\">+</div>","response":null,"screen":"fixation","trial_type":"html-keyboard-response","trial_index":46,"time_elapsed":90639,"internal_node_id":"0.0-4.0-2.0-0.20","screen_height":764,"screen_width":1601,"browser":"chrome","browser_version":"103.0.0","mobile":false,"os":"Windows 10","vsync_rate":59.88,"participant_id":"MAX_01","trial_duration":982},{"rt":721,"stimulus":"stimuli/RodFrame_str-30.0_diff-4.0.png","response":"arrowleft","screen":"Trial","block":"RodFrame","correct_response":"arrowleft","trial_type":"image-keyboard-response","trial_index":47,"time_elapsed":91361,"internal_node_id":"0.0-4.0-2.0-1.20","screen_height":764,"screen_width":1601,"browser":"chrome","browser_version":"103.0.0","mobile":false,"os":"Windows 10","vsync_rate":59.88,"participant_id":"MAX_01","prestimulus_duration":982,"correct":true,"type":"RodFrame","illusion_strength":-30,"illusion_difference":-4,"block_number":1,"trial_number":21},{"rt":null,"stimulus":"<div style=\"font-size:60px;\">+</div>","response":null,"screen":"fixation","trial_type":"html-keyboard-response","trial_index":48,"time_elapsed":92143,"internal_node_id":"0.0-4.0-2.0-0.21","screen_height":764,"screen_width":1601,"browser":"chrome","browser_version":"103.0.0","mobile":false,"os":"Windows 10","vsync_rate":59.88,"participant_id":"MAX_01","trial_duration":766},{"rt":760,"stimulus":"stimuli/RodFrame_str18.0_diff-20.0.png","response":"arrowleft","screen":"Trial","block":"RodFrame","correct_response":"arrowleft","trial_type":"image-keyboard-response","trial_index":49,"time_elapsed":92905,"internal_node_id":"0.0-4.0-2.0-1.21","screen_height":764,"screen_width":1601,"browser":"chrome","browser_version":"103.0.0","mobile":false,"os":"Windows 10","vsync_rate":59.88,"participant_id":"MAX_01","prestimulus_duration":782,"correct":true,"type":"RodFrame","illusion_strength":18,"illusion_difference":-20,"block_number":1,"trial_number":22},{"rt":null,"stimulus":"<div style=\"font-size:60px;\">+</div>","response":null,"screen":"fixation","trial_type":"html-keyboard-response","trial_index":50,"time_elapsed":93334,"internal_node_id":"0.0-4.0-2.0-0.22","screen_height":764,"screen_width":1601,"browser":"chrome","browser_version":"103.0.0","mobile":false,"os":"Windows 10","vsync_rate":59.88,"participant_id":"MAX_01","trial_duration":425},{"rt":1052,"stimulus":"stimuli/RodFrame_str6.0_diff12.0.png","response":"arrowright","screen":"Trial","block":"RodFrame","correct_response":"arrowright","trial_type":"image-keyboard-response","trial_index":51,"time_elapsed":94387,"internal_node_id":"0.0-4.0-2.0-1.22","screen_height":764,"screen_width":1601,"browser":"chrome","browser_version":"103.0.0","mobile":false,"os":"Windows 10","vsync_rate":59.88,"participant_id":"MAX_01","prestimulus_duration":429,"correct":true,"type":"RodFrame","illusion_strength":6,"illusion_difference":12,"block_number":1,"trial_number":23},{"rt":null,"stimulus":"<div style=\"font-size:60px;\">+</div>","response":null,"screen":"fixation","trial_type":"html-keyboard-response","trial_index":52,"time_elapsed":94928,"internal_node_id":"0.0-4.0-2.0-0.23","screen_height":764,"screen_width":1601,"browser":"chrome","browser_version":"103.0.0","mobile":false,"os":"Windows 10","vsync_rate":59.88,"participant_id":"MAX_01","trial_duration":530},{"rt":992,"stimulus":"stimuli/RodFrame_str-30.0_diff4.0.png","response":"arrowright","screen":"Trial","block":"RodFrame","correct_response":"arrowright","trial_type":"image-keyboard-response","trial_index":53,"time_elapsed":95921,"internal_node_id":"0.0-4.0-2.0-1.23","screen_height":764,"screen_width":1601,"browser":"chrome","browser_version":"103.0.0","mobile":false,"os":"Windows 10","vsync_rate":59.88,"participant_id":"MAX_01","prestimulus_duration":541,"correct":true,"type":"RodFrame","illusion_strength":-30,"illusion_difference":4,"block_number":1,"trial_number":24},{"rt":null,"stimulus":"<div style=\"font-size:60px;\">+</div>","response":null,"screen":"fixation","trial_type":"html-keyboard-response","trial_index":54,"time_elapsed":96540,"internal_node_id":"0.0-4.0-2.0-0.24","screen_height":764,"screen_width":1601,"browser":"chrome","browser_version":"103.0.0","mobile":false,"os":"Windows 10","vsync_rate":59.88,"participant_id":"MAX_01","trial_duration":607},{"rt":780,"stimulus":"stimuli/RodFrame_str18.0_diff-4.0.png","response":"arrowleft","screen":"Trial","block":"RodFrame","correct_response":"arrowleft","trial_type":"image-keyboard-response","trial_index":55,"time_elapsed":97322,"internal_node_id":"0.0-4.0-2.0-1.24","screen_height":764,"screen_width":1601,"browser":"chrome","browser_version":"103.0.0","mobile":false,"os":"Windows 10","vsync_rate":59.88,"participant_id":"MAX_01","prestimulus_duration":619,"correct":true,"type":"RodFrame","illusion_strength":18,"illusion_difference":-4,"block_number":1,"trial_number":25},{"rt":null,"stimulus":"<div style=\"font-size:60px;\">+</div>","response":null,"screen":"fixation","trial_type":"html-keyboard-response","trial_index":56,"time_elapsed":98134,"internal_node_id":"0.0-4.0-2.0-0.25","screen_height":764,"screen_width":1601,"browser":"chrome","browser_version":"103.0.0","mobile":false,"os":"Windows 10","vsync_rate":59.88,"participant_id":"MAX_01","trial_duration":798},{"rt":700,"stimulus":"stimuli/RodFrame_str-30.0_diff-20.0.png","response":"arrowleft","screen":"Trial","block":"RodFrame","correct_response":"arrowleft","trial_type":"image-keyboard-response","trial_index":57,"time_elapsed":98835,"internal_node_id":"0.0-4.0-2.0-1.25","screen_height":764,"screen_width":1601,"browser":"chrome","browser_version":"103.0.0","mobile":false,"os":"Windows 10","vsync_rate":59.88,"participant_id":"MAX_01","prestimulus_duration":812,"correct":true,"type":"RodFrame","illusion_strength":-30,"illusion_difference":-20,"block_number":1,"trial_number":26},{"rt":null,"stimulus":"<div style=\"font-size:60px;\">+</div>","response":null,"screen":"fixation","trial_type":"html-keyboard-response","trial_index":58,"time_elapsed":99796,"internal_node_id":"0.0-4.0-2.0-0.26","screen_height":764,"screen_width":1601,"browser":"chrome","browser_version":"103.0.0","mobile":false,"os":"Windows 10","vsync_rate":59.88,"participant_id":"MAX_01","trial_duration":951},{"rt":836,"stimulus":"stimuli/RodFrame_str-18.0_diff-20.0.png","response":"arrowleft","screen":"Trial","block":"RodFrame","correct_response":"arrowleft","trial_type":"image-keyboard-response","trial_index":59,"time_elapsed":100633,"internal_node_id":"0.0-4.0-2.0-1.26","screen_height":764,"screen_width":1601,"browser":"chrome","browser_version":"103.0.0","mobile":false,"os":"Windows 10","vsync_rate":59.88,"participant_id":"MAX_01","prestimulus_duration":961,"correct":true,"type":"RodFrame","illusion_strength":-18,"illusion_difference":-20,"block_number":1,"trial_number":27},{"rt":null,"stimulus":"<div style=\"font-size:60px;\">+</div>","response":null,"screen":"fixation","trial_type":"html-keyboard-response","trial_index":60,"time_elapsed":101059,"internal_node_id":"0.0-4.0-2.0-0.27","screen_height":764,"screen_width":1601,"browser":"chrome","browser_version":"103.0.0","mobile":false,"os":"Windows 10","vsync_rate":59.88,"participant_id":"MAX_01","trial_duration":412},{"rt":1672,"stimulus":"stimuli/RodFrame_str18.0_diff20.0.png","response":"arrowright","screen":"Trial","block":"RodFrame","correct_response":"arrowright","trial_type":"image-keyboard-response","trial_index":61,"time_elapsed":102732,"internal_node_id":"0.0-4.0-2.0-1.27","screen_height":764,"screen_width":1601,"browser":"chrome","browser_version":"103.0.0","mobile":false,"os":"Windows 10","vsync_rate":59.88,"participant_id":"MAX_01","prestimulus_duration":426,"correct":true,"type":"RodFrame","illusion_strength":18,"illusion_difference":20,"block_number":1,"trial_number":28},{"rt":null,"stimulus":"<div style=\"font-size:60px;\">+</div>","response":null,"screen":"fixation","trial_type":"html-keyboard-response","trial_index":62,"time_elapsed":103534,"internal_node_id":"0.0-4.0-2.0-0.28","screen_height":764,"screen_width":1601,"browser":"chrome","browser_version":"103.0.0","mobile":false,"os":"Windows 10","vsync_rate":59.88,"participant_id":"MAX_01","trial_duration":796},{"rt":1140,"stimulus":"stimuli/RodFrame_str-30.0_diff12.0.png","response":"arrowright","screen":"Trial","block":"RodFrame","correct_response":"arrowright","trial_type":"image-keyboard-response","trial_index":63,"time_elapsed":104676,"internal_node_id":"0.0-4.0-2.0-1.28","screen_height":764,"screen_width":1601,"browser":"chrome","browser_version":"103.0.0","mobile":false,"os":"Windows 10","vsync_rate":59.88,"participant_id":"MAX_01","prestimulus_duration":802,"correct":true,"type":"RodFrame","illusion_strength":-30,"illusion_difference":12,"block_number":1,"trial_number":29},{"rt":null,"stimulus":"<div style=\"font-size:60px;\">+</div>","response":null,"screen":"fixation","trial_type":"html-keyboard-response","trial_index":64,"time_elapsed":105539,"internal_node_id":"0.0-4.0-2.0-0.29","screen_height":764,"screen_width":1601,"browser":"chrome","browser_version":"103.0.0","mobile":false,"os":"Windows 10","vsync_rate":59.88,"participant_id":"MAX_01","trial_duration":848},{"rt":1108,"stimulus":"stimuli/RodFrame_str30.0_diff20.0.png","response":"arrowright","screen":"Trial","block":"RodFrame","correct_response":"arrowright","trial_type":"image-keyboard-response","trial_index":65,"time_elapsed":106649,"internal_node_id":"0.0-4.0-2.0-1.29","screen_height":764,"screen_width":1601,"browser":"chrome","browser_version":"103.0.0","mobile":false,"os":"Windows 10","vsync_rate":59.88,"participant_id":"MAX_01","prestimulus_duration":863,"correct":true,"type":"RodFrame","illusion_strength":30,"illusion_difference":20,"block_number":1,"trial_number":30},{"rt":null,"stimulus":"<div style=\"font-size:60px;\">+</div>","response":null,"screen":"fixation","trial_type":"html-keyboard-response","trial_index":66,"time_elapsed":107460,"internal_node_id":"0.0-4.0-2.0-0.30","screen_height":764,"screen_width":1601,"browser":"chrome","browser_version":"103.0.0","mobile":false,"os":"Windows 10","vsync_rate":59.88,"participant_id":"MAX_01","trial_duration":807},{"rt":1326,"stimulus":"stimuli/RodFrame_str6.0_diff-4.0.png","response":"arrowleft","screen":"Trial","block":"RodFrame","correct_response":"arrowleft","trial_type":"image-keyboard-response","trial_index":67,"time_elapsed":108787,"internal_node_id":"0.0-4.0-2.0-1.30","screen_height":764,"screen_width":1601,"browser":"chrome","browser_version":"103.0.0","mobile":false,"os":"Windows 10","vsync_rate":59.88,"participant_id":"MAX_01","prestimulus_duration":811,"correct":true,"type":"RodFrame","illusion_strength":6,"illusion_difference":-4,"block_number":1,"trial_number":31},{"rt":null,"stimulus":"<div style=\"font-size:60px;\">+</div>","response":null,"screen":"fixation","trial_type":"html-keyboard-response","trial_index":68,"time_elapsed":109117,"internal_node_id":"0.0-4.0-2.0-0.31","screen_height":764,"screen_width":1601,"browser":"chrome","browser_version":"103.0.0","mobile":false,"os":"Windows 10","vsync_rate":59.88,"participant_id":"MAX_01","trial_duration":322},{"rt":774,"stimulus":"stimuli/RodFrame_str30.0_diff-12.0.png","response":"arrowleft","screen":"Trial","block":"RodFrame","correct_response":"arrowleft","trial_type":"image-keyboard-response","trial_index":69,"time_elapsed":109893,"internal_node_id":"0.0-4.0-2.0-1.31","screen_height":764,"screen_width":1601,"browser":"chrome","browser_version":"103.0.0","mobile":false,"os":"Windows 10","vsync_rate":59.88,"participant_id":"MAX_01","prestimulus_duration":330,"correct":true,"type":"RodFrame","illusion_strength":30,"illusion_difference":-12,"block_number":1,"trial_number":32},{"rt":null,"stimulus":"<div style=\"font-size:60px;\">+</div>","response":null,"screen":"fixation","trial_type":"html-keyboard-response","trial_index":70,"time_elapsed":110327,"internal_node_id":"0.0-4.0-2.0-0.32","screen_height":764,"screen_width":1601,"browser":"chrome","browser_version":"103.0.0","mobile":false,"os":"Windows 10","vsync_rate":59.88,"participant_id":"MAX_01","trial_duration":422},{"rt":682,"stimulus":"stimuli/RodFrame_str6.0_diff-20.0.png","response":"arrowleft","screen":"Trial","block":"RodFrame","correct_response":"arrowleft","trial_type":"image-keyboard-response","trial_index":71,"time_elapsed":111011,"internal_node_id":"0.0-4.0-2.0-1.32","screen_height":764,"screen_width":1601,"browser":"chrome","browser_version":"103.0.0","mobile":false,"os":"Windows 10","vsync_rate":59.88,"participant_id":"MAX_01","prestimulus_duration":434,"correct":true,"type":"RodFrame","illusion_strength":6,"illusion_difference":-20,"block_number":1,"trial_number":33},{"rt":null,"stimulus":"<div style=\"font-size:60px;\">+</div>","response":null,"screen":"fixation","trial_type":"html-keyboard-response","trial_index":72,"time_elapsed":111394,"internal_node_id":"0.0-4.0-2.0-0.33","screen_height":764,"screen_width":1601,"browser":"chrome","browser_version":"103.0.0","mobile":false,"os":"Windows 10","vsync_rate":59.88,"participant_id":"MAX_01","trial_duration":366},{"rt":1023,"stimulus":"stimuli/RodFrame_str-18.0_diff4.0.png","response":"arrowright","screen":"Trial","block":"RodFrame","correct_response":"arrowright","trial_type":"image-keyboard-response","trial_index":73,"time_elapsed":112420,"internal_node_id":"0.0-4.0-2.0-1.33","screen_height":764,"screen_width":1601,"browser":"chrome","browser_version":"103.0.0","mobile":false,"os":"Windows 10","vsync_rate":59.88,"participant_id":"MAX_01","prestimulus_duration":383,"correct":true,"type":"RodFrame","illusion_strength":-18,"illusion_difference":4,"block_number":1,"trial_number":34},{"rt":null,"stimulus":"<div style=\"font-size:60px;\">+</div>","response":null,"screen":"fixation","trial_type":"html-keyboard-response","trial_index":74,"time_elapsed":113302,"internal_node_id":"0.0-4.0-2.0-0.34","screen_height":764,"screen_width":1601,"browser":"chrome","browser_version":"103.0.0","mobile":false,"os":"Windows 10","vsync_rate":59.88,"participant_id":"MAX_01","trial_duration":875},{"rt":611,"stimulus":"stimuli/RodFrame_str-6.0_diff-4.0.png","response":"arrowleft","screen":"Trial","block":"RodFrame","correct_response":"arrowleft","trial_type":"image-keyboard-response","trial_index":75,"time_elapsed":113916,"internal_node_id":"0.0-4.0-2.0-1.34","screen_height":764,"screen_width":1601,"browser":"chrome","browser_version":"103.0.0","mobile":false,"os":"Windows 10","vsync_rate":59.88,"participant_id":"MAX_01","prestimulus_duration":882,"correct":true,"type":"RodFrame","illusion_strength":-6,"illusion_difference":-4,"block_number":1,"trial_number":35},{"rt":null,"stimulus":"<div style=\"font-size:60px;\">+</div>","response":null,"screen":"fixation","trial_type":"html-keyboard-response","trial_index":76,"time_elapsed":114298,"internal_node_id":"0.0-4.0-2.0-0.35","screen_height":764,"screen_width":1601,"browser":"chrome","browser_version":"103.0.0","mobile":false,"os":"Windows 10","vsync_rate":59.88,"participant_id":"MAX_01","trial_duration":376},{"rt":767,"stimulus":"stimuli/RodFrame_str6.0_diff20.0.png","response":"arrowleft","screen":"Trial","block":"RodFrame","correct_response":"arrowright","trial_type":"image-keyboard-response","trial_index":77,"time_elapsed":115068,"internal_node_id":"0.0-4.0-2.0-1.35","screen_height":764,"screen_width":1601,"browser":"chrome","browser_version":"103.0.0","mobile":false,"os":"Windows 10","vsync_rate":59.88,"participant_id":"MAX_01","prestimulus_duration":382,"correct":false,"type":"RodFrame","illusion_strength":6,"illusion_difference":20,"block_number":1,"trial_number":36},{"rt":30622,"stimulus":"<p>Your score for this illusion is <p style=\"color: black; font-size: 48px; font-weight: bold;\">3973</p><hr><hr><p>Can you do better in the next illusion?</p>","response":0,"screen":"block_results","trial_type":"html-button-response","trial_index":78,"time_elapsed":145700,"internal_node_id":"0.0-4.0-3.0","screen_height":764,"screen_width":1601,"browser":"chrome","browser_version":"103.0.0","mobile":false,"os":"Windows 10","vsync_rate":59.88,"participant_id":"MAX_01"},{"success":true,"timeout":false,"failed_images":[],"failed_audio":[],"failed_video":[],"trial_type":"preload","trial_index":79,"time_elapsed":145703,"internal_node_id":"0.0-5.0-0.0","screen_height":764,"screen_width":1601,"browser":"chrome","browser_version":"103.0.0","mobile":false,"os":"Windows 10","vsync_rate":59.88,"participant_id":"MAX_01"},{"rt":102353,"stimulus":"<p><b>Part 2</b></p><p>In this part, two horizontal red lines will appear one above the other.</p><p>Your task is to select <b>the direction</b> towards which the red lines are pointing, as fast as you can, and without making errors.</p><p>Don't get distracted by the black lines!</p><p>Press <b>the LEFT or the RIGHT arrow</b> to indicate the <b>direction where the red lines are pointing.</b></p><div style='float: center'><img src='utils/stimuli_demo/Zollner_Demo.png' height='300'></img><p><img src='utils/answer/answer_leftright_keyboard.PNG' height='150'></img></p><p class='small'>In this example, the correct answer is the <b>LEFT arrow</b>.</p></div><p>Are you ready? <b>Press ENTER to start</b></p>","response":"enter","trial_type":"html-keyboard-response","trial_index":80,"time_elapsed":248057,"internal_node_id":"0.0-5.0-1.0","screen_height":764,"screen_width":1601,"browser":"chrome","browser_version":"103.0.0","mobile":false,"os":"Windows 10","vsync_rate":59.88,"participant_id":"MAX_01"},{"rt":null,"stimulus":"<div style=\"font-size:60px;\">+</div>","response":null,"screen":"fixation","trial_type":"html-keyboard-response","trial_index":81,"time_elapsed":249425,"internal_node_id":"0.0-5.0-2.0-0.0","screen_height":764,"screen_width":1601,"browser":"chrome","browser_version":"103.0.0","mobile":false,"os":"Windows 10","vsync_rate":59.88,"participant_id":"MAX_01","trial_duration":847},{"rt":1255,"stimulus":"stimuli/Zollner_str-70.0_diff7.0.png","response":"arrowright","screen":"Trial","block":"Zollner","correct_response":"arrowright","trial_type":"image-keyboard-response","trial_index":82,"time_elapsed":250682,"internal_node_id":"0.0-5.0-2.0-1.0","screen_height":764,"screen_width":1601,"browser":"chrome","browser_version":"103.0.0","mobile":false,"os":"Windows 10","vsync_rate":59.88,"participant_id":"MAX_01","prestimulus_duration":1368,"correct":true,"type":"Zollner","illusion_strength":-70,"illusion_difference":7,"block_number":2,"trial_number":1},{"rt":null,"stimulus":"<div style=\"font-size:60px;\">+</div>","response":null,"screen":"fixation","trial_type":"html-keyboard-response","trial_index":83,"time_elapsed":251173,"internal_node_id":"0.0-5.0-2.0-0.1","screen_height":764,"screen_width":1601,"browser":"chrome","browser_version":"103.0.0","mobile":false,"os":"Windows 10","vsync_rate":59.88,"participant_id":"MAX_01","trial_duration":477},{"rt":740,"stimulus":"stimuli/Zollner_str-14.0_diff-7.0.png","response":"arrowleft","screen":"Trial","block":"Zollner","correct_response":"arrowleft","trial_type":"image-keyboard-response","trial_index":84,"time_elapsed":251914,"internal_node_id":"0.0-5.0-2.0-1.1","screen_height":764,"screen_width":1601,"browser":"chrome","browser_version":"103.0.0","mobile":false,"os":"Windows 10","vsync_rate":59.88,"participant_id":"MAX_01","prestimulus_duration":491,"correct":true,"type":"Zollner","illusion_strength":-14,"illusion_difference":-7,"block_number":2,"trial_number":2},{"rt":null,"stimulus":"<div style=\"font-size:60px;\">+</div>","response":null,"screen":"fixation","trial_type":"html-keyboard-response","trial_index":85,"time_elapsed":252777,"internal_node_id":"0.0-5.0-2.0-0.2","screen_height":764,"screen_width":1601,"browser":"chrome","browser_version":"103.0.0","mobile":false,"os":"Windows 10","vsync_rate":59.88,"participant_id":"MAX_01","trial_duration":849},{"rt":960,"stimulus":"stimuli/Zollner_str-70.0_diff-1.4.png","response":"arrowright","screen":"Trial","block":"Zollner","correct_response":"arrowleft","trial_type":"image-keyboard-response","trial_index":86,"time_elapsed":253740,"internal_node_id":"0.0-5.0-2.0-1.2","screen_height":764,"screen_width":1601,"browser":"chrome","browser_version":"103.0.0","mobile":false,"os":"Windows 10","vsync_rate":59.88,"participant_id":"MAX_01","prestimulus_duration":863,"correct":false,"type":"Zollner","illusion_strength":-70,"illusion_difference":-1.4000000000000004,"block_number":2,"trial_number":3},{"rt":null,"stimulus":"<div style=\"font-size:60px;\">+</div>","response":null,"screen":"fixation","trial_type":"html-keyboard-response","trial_index":87,"time_elapsed":254173,"internal_node_id":"0.0-5.0-2.0-0.3","screen_height":764,"screen_width":1601,"browser":"chrome","browser_version":"103.0.0","mobile":false,"os":"Windows 10","vsync_rate":59.88,"participant_id":"MAX_01","trial_duration":428},{"rt":1548,"stimulus":"stimuli/Zollner_str14.0_diff-1.4.png","response":"arrowleft","screen":"Trial","block":"Zollner","correct_response":"arrowleft","trial_type":"image-keyboard-response","trial_index":88,"time_elapsed":255723,"internal_node_id":"0.0-5.0-2.0-1.3","screen_height":764,"screen_width":1601,"browser":"chrome","browser_version":"103.0.0","mobile":false,"os":"Windows 10","vsync_rate":59.88,"participant_id":"MAX_01","prestimulus_duration":433,"correct":true,"type":"Zollner","illusion_strength":14,"illusion_difference":-1.4000000000000004,"block_number":2,"trial_number":4},{"rt":null,"stimulus":"<div style=\"font-size:60px;\">+</div>","response":null,"screen":"fixation","trial_type":"html-keyboard-response","trial_index":89,"time_elapsed":256236,"internal_node_id":"0.0-5.0-2.0-0.4","screen_height":764,"screen_width":1601,"browser":"chrome","browser_version":"103.0.0","mobile":false,"os":"Windows 10","vsync_rate":59.88,"participant_id":"MAX_01","trial_duration":509},{"rt":1126,"stimulus":"stimuli/Zollner_str-42.0_diff1.4.png","response":"arrowright","screen":"Trial","block":"Zollner","correct_response":"arrowright","trial_type":"image-keyboard-response","trial_index":90,"time_elapsed":257363,"internal_node_id":"0.0-5.0-2.0-1.4","screen_height":764,"screen_width":1601,"browser":"chrome","browser_version":"103.0.0","mobile":false,"os":"Windows 10","vsync_rate":59.88,"participant_id":"MAX_01","prestimulus_duration":513,"correct":true,"type":"Zollner","illusion_strength":-42,"illusion_difference":1.3999999999999986,"block_number":2,"trial_number":5},{"rt":null,"stimulus":"<div style=\"font-size:60px;\">+</div>","response":null,"screen":"fixation","trial_type":"html-keyboard-response","trial_index":91,"time_elapsed":257652,"internal_node_id":"0.0-5.0-2.0-0.5","screen_height":764,"screen_width":1601,"browser":"chrome","browser_version":"103.0.0","mobile":false,"os":"Windows 10","vsync_rate":59.88,"participant_id":"MAX_01","trial_duration":279},{"rt":1013,"stimulus":"stimuli/Zollner_str14.0_diff4.2.png","response":"arrowright","screen":"Trial","block":"Zollner","correct_response":"arrowright","trial_type":"image-keyboard-response","trial_index":92,"time_elapsed":258665,"internal_node_id":"0.0-5.0-2.0-1.5","screen_height":764,"screen_width":1601,"browser":"chrome","browser_version":"103.0.0","mobile":false,"os":"Windows 10","vsync_rate":59.88,"participant_id":"MAX_01","prestimulus_duration":289,"correct":true,"type":"Zollner","illusion_strength":14,"illusion_difference":4.199999999999999,"block_number":2,"trial_number":6},{"rt":null,"stimulus":"<div style=\"font-size:60px;\">+</div>","response":null,"screen":"fixation","trial_type":"html-keyboard-response","trial_index":93,"time_elapsed":259159,"internal_node_id":"0.0-5.0-2.0-0.6","screen_height":764,"screen_width":1601,"browser":"chrome","browser_version":"103.0.0","mobile":false,"os":"Windows 10","vsync_rate":59.88,"participant_id":"MAX_01","trial_duration":486},{"rt":1002,"stimulus":"stimuli/Zollner_str-14.0_diff4.2.png","response":"arrowright","screen":"Trial","block":"Zollner","correct_response":"arrowright","trial_type":"image-keyboard-response","trial_index":94,"time_elapsed":260163,"internal_node_id":"0.0-5.0-2.0-1.6","screen_height":764,"screen_width":1601,"browser":"chrome","browser_version":"103.0.0","mobile":false,"os":"Windows 10","vsync_rate":59.88,"participant_id":"MAX_01","prestimulus_duration":494,"correct":true,"type":"Zollner","illusion_strength":-14,"illusion_difference":4.199999999999999,"block_number":2,"trial_number":7},{"rt":null,"stimulus":"<div style=\"font-size:60px;\">+</div>","response":null,"screen":"fixation","trial_type":"html-keyboard-response","trial_index":95,"time_elapsed":260891,"internal_node_id":"0.0-5.0-2.0-0.7","screen_height":764,"screen_width":1601,"browser":"chrome","browser_version":"103.0.0","mobile":false,"os":"Windows 10","vsync_rate":59.88,"participant_id":"MAX_01","trial_duration":715},{"rt":1086,"stimulus":"stimuli/Zollner_str14.0_diff7.0.png","response":"arrowright","screen":"Trial","block":"Zollner","correct_response":"arrowright","trial_type":"image-keyboard-response","trial_index":96,"time_elapsed":261977,"internal_node_id":"0.0-5.0-2.0-1.7","screen_height":764,"screen_width":1601,"browser":"chrome","browser_version":"103.0.0","mobile":false,"os":"Windows 10","vsync_rate":59.88,"participant_id":"MAX_01","prestimulus_duration":728,"correct":true,"type":"Zollner","illusion_strength":14,"illusion_difference":7,"block_number":2,"trial_number":8},{"rt":null,"stimulus":"<div style=\"font-size:60px;\">+</div>","response":null,"screen":"fixation","trial_type":"html-keyboard-response","trial_index":97,"time_elapsed":262300,"internal_node_id":"0.0-5.0-2.0-0.8","screen_height":764,"screen_width":1601,"browser":"chrome","browser_version":"103.0.0","mobile":false,"os":"Windows 10","vsync_rate":59.88,"participant_id":"MAX_01","trial_duration":312},{"rt":1015,"stimulus":"stimuli/Zollner_str42.0_diff4.2.png","response":"arrowright","screen":"Trial","block":"Zollner","correct_response":"arrowright","trial_type":"image-keyboard-response","trial_index":98,"time_elapsed":263315,"internal_node_id":"0.0-5.0-2.0-1.8","screen_height":764,"screen_width":1601,"browser":"chrome","browser_version":"103.0.0","mobile":false,"os":"Windows 10","vsync_rate":59.88,"participant_id":"MAX_01","prestimulus_duration":323,"correct":true,"type":"Zollner","illusion_strength":42,"illusion_difference":4.199999999999999,"block_number":2,"trial_number":9},{"rt":null,"stimulus":"<div style=\"font-size:60px;\">+</div>","response":null,"screen":"fixation","trial_type":"html-keyboard-response","trial_index":99,"time_elapsed":263990,"internal_node_id":"0.0-5.0-2.0-0.9","screen_height":764,"screen_width":1601,"browser":"chrome","browser_version":"103.0.0","mobile":false,"os":"Windows 10","vsync_rate":59.88,"participant_id":"MAX_01","trial_duration":668},{"rt":1132,"stimulus":"stimuli/Zollner_str14.0_diff1.4.png","response":"arrowright","screen":"Trial","block":"Zollner","correct_response":"arrowright","trial_type":"image-keyboard-response","trial_index":100,"time_elapsed":265123,"internal_node_id":"0.0-5.0-2.0-1.9","screen_height":764,"screen_width":1601,"browser":"chrome","browser_version":"103.0.0","mobile":false,"os":"Windows 10","vsync_rate":59.88,"participant_id":"MAX_01","prestimulus_duration":675,"correct":true,"type":"Zollner","illusion_strength":14,"illusion_difference":1.3999999999999986,"block_number":2,"trial_number":10},{"rt":null,"stimulus":"<div style=\"font-size:60px;\">+</div>","response":null,"screen":"fixation","trial_type":"html-keyboard-response","trial_index":101,"time_elapsed":266082,"internal_node_id":"0.0-5.0-2.0-0.10","screen_height":764,"screen_width":1601,"browser":"chrome","browser_version":"103.0.0","mobile":false,"os":"Windows 10","vsync_rate":59.88,"participant_id":"MAX_01","trial_duration":943},{"rt":825,"stimulus":"stimuli/Zollner_str42.0_diff7.0.png","response":"arrowright","screen":"Trial","block":"Zollner","correct_response":"arrowright","trial_type":"image-keyboard-response","trial_index":102,"time_elapsed":266909,"internal_node_id":"0.0-5.0-2.0-1.10","screen_height":764,"screen_width":1601,"browser":"chrome","browser_version":"103.0.0","mobile":false,"os":"Windows 10","vsync_rate":59.88,"participant_id":"MAX_01","prestimulus_duration":959,"correct":true,"type":"Zollner","illusion_strength":42,"illusion_difference":7,"block_number":2,"trial_number":11},{"rt":null,"stimulus":"<div style=\"font-size:60px;\">+</div>","response":null,"screen":"fixation","trial_type":"html-keyboard-response","trial_index":103,"time_elapsed":267773,"internal_node_id":"0.0-5.0-2.0-0.11","screen_height":764,"screen_width":1601,"browser":"chrome","browser_version":"103.0.0","mobile":false,"os":"Windows 10","vsync_rate":59.88,"participant_id":"MAX_01","trial_duration":849},{"rt":909,"stimulus":"stimuli/Zollner_str-42.0_diff-1.4.png","response":"arrowleft","screen":"Trial","block":"Zollner","correct_response":"arrowleft","trial_type":"image-keyboard-response","trial_index":104,"time_elapsed":268683,"internal_node_id":"0.0-5.0-2.0-1.11","screen_height":764,"screen_width":1601,"browser":"chrome","browser_version":"103.0.0","mobile":false,"os":"Windows 10","vsync_rate":59.88,"participant_id":"MAX_01","prestimulus_duration":864,"correct":true,"type":"Zollner","illusion_strength":-42,"illusion_difference":-1.4000000000000004,"block_number":2,"trial_number":12},{"rt":null,"stimulus":"<div style=\"font-size:60px;\">+</div>","response":null,"screen":"fixation","trial_type":"html-keyboard-response","trial_index":105,"time_elapsed":269542,"internal_node_id":"0.0-5.0-2.0-0.12","screen_height":764,"screen_width":1601,"browser":"chrome","browser_version":"103.0.0","mobile":false,"os":"Windows 10","vsync_rate":59.88,"participant_id":"MAX_01","trial_duration":850},{"rt":833,"stimulus":"stimuli/Zollner_str70.0_diff4.2.png","response":"arrowright","screen":"Trial","block":"Zollner","correct_response":"arrowright","trial_type":"image-keyboard-response","trial_index":106,"time_elapsed":270377,"internal_node_id":"0.0-5.0-2.0-1.12","screen_height":764,"screen_width":1601,"browser":"chrome","browser_version":"103.0.0","mobile":false,"os":"Windows 10","vsync_rate":59.88,"participant_id":"MAX_01","prestimulus_duration":859,"correct":true,"type":"Zollner","illusion_strength":70,"illusion_difference":4.199999999999999,"block_number":2,"trial_number":13},{"rt":null,"stimulus":"<div style=\"font-size:60px;\">+</div>","response":null,"screen":"fixation","trial_type":"html-keyboard-response","trial_index":107,"time_elapsed":270998,"internal_node_id":"0.0-5.0-2.0-0.13","screen_height":764,"screen_width":1601,"browser":"chrome","browser_version":"103.0.0","mobile":false,"os":"Windows 10","vsync_rate":59.88,"participant_id":"MAX_01","trial_duration":606},{"rt":755,"stimulus":"stimuli/Zollner_str70.0_diff1.4.png","response":"arrowright","screen":"Trial","block":"Zollner","correct_response":"arrowright","trial_type":"image-keyboard-response","trial_index":108,"time_elapsed":271756,"internal_node_id":"0.0-5.0-2.0-1.13","screen_height":764,"screen_width":1601,"browser":"chrome","browser_version":"103.0.0","mobile":false,"os":"Windows 10","vsync_rate":59.88,"participant_id":"MAX_01","prestimulus_duration":621,"correct":true,"type":"Zollner","illusion_strength":70,"illusion_difference":1.3999999999999986,"block_number":2,"trial_number":14},{"rt":null,"stimulus":"<div style=\"font-size:60px;\">+</div>","response":null,"screen":"fixation","trial_type":"html-keyboard-response","trial_index":109,"time_elapsed":272107,"internal_node_id":"0.0-5.0-2.0-0.14","screen_height":764,"screen_width":1601,"browser":"chrome","browser_version":"103.0.0","mobile":false,"os":"Windows 10","vsync_rate":59.88,"participant_id":"MAX_01","trial_duration":348},{"rt":895,"stimulus":"stimuli/Zollner_str-14.0_diff-4.2.png","response":"arrowleft","screen":"Trial","block":"Zollner","correct_response":"arrowleft","trial_type":"image-keyboard-response","trial_index":110,"time_elapsed":273003,"internal_node_id":"0.0-5.0-2.0-1.14","screen_height":764,"screen_width":1601,"browser":"chrome","browser_version":"103.0.0","mobile":false,"os":"Windows 10","vsync_rate":59.88,"participant_id":"MAX_01","prestimulus_duration":351,"correct":true,"type":"Zollner","illusion_strength":-14,"illusion_difference":-4.2,"block_number":2,"trial_number":15},{"rt":null,"stimulus":"<div style=\"font-size:60px;\">+</div>","response":null,"screen":"fixation","trial_type":"html-keyboard-response","trial_index":111,"time_elapsed":273682,"internal_node_id":"0.0-5.0-2.0-0.15","screen_height":764,"screen_width":1601,"browser":"chrome","browser_version":"103.0.0","mobile":false,"os":"Windows 10","vsync_rate":59.88,"participant_id":"MAX_01","trial_duration":668},{"rt":807,"stimulus":"stimuli/Zollner_str-14.0_diff1.4.png","response":"arrowright","screen":"Trial","block":"Zollner","correct_response":"arrowright","trial_type":"image-keyboard-response","trial_index":112,"time_elapsed":274491,"internal_node_id":"0.0-5.0-2.0-1.15","screen_height":764,"screen_width":1601,"browser":"chrome","browser_version":"103.0.0","mobile":false,"os":"Windows 10","vsync_rate":59.88,"participant_id":"MAX_01","prestimulus_duration":679,"correct":true,"type":"Zollner","illusion_strength":-14,"illusion_difference":1.3999999999999986,"block_number":2,"trial_number":16},{"rt":null,"stimulus":"<div style=\"font-size:60px;\">+</div>","response":null,"screen":"fixation","trial_type":"html-keyboard-response","trial_index":113,"time_elapsed":275310,"internal_node_id":"0.0-5.0-2.0-0.16","screen_height":764,"screen_width":1601,"browser":"chrome","browser_version":"103.0.0","mobile":false,"os":"Windows 10","vsync_rate":59.88,"participant_id":"MAX_01","trial_duration":810},{"rt":761,"stimulus":"stimuli/Zollner_str-42.0_diff7.0.png","response":"arrowright","screen":"Trial","block":"Zollner","correct_response":"arrowright","trial_type":"image-keyboard-response","trial_index":114,"time_elapsed":276073,"internal_node_id":"0.0-5.0-2.0-1.16","screen_height":764,"screen_width":1601,"browser":"chrome","browser_version":"103.0.0","mobile":false,"os":"Windows 10","vsync_rate":59.88,"participant_id":"MAX_01","prestimulus_duration":819,"correct":true,"type":"Zollner","illusion_strength":-42,"illusion_difference":7,"block_number":2,"trial_number":17},{"rt":null,"stimulus":"<div style=\"font-size:60px;\">+</div>","response":null,"screen":"fixation","trial_type":"html-keyboard-response","trial_index":115,"time_elapsed":276544,"internal_node_id":"0.0-5.0-2.0-0.17","screen_height":764,"screen_width":1601,"browser":"chrome","browser_version":"103.0.0","mobile":false,"os":"Windows 10","vsync_rate":59.88,"participant_id":"MAX_01","trial_duration":459},{"rt":1127,"stimulus":"stimuli/Zollner_str-14.0_diff-1.4.png","response":"arrowleft","screen":"Trial","block":"Zollner","correct_response":"arrowleft","trial_type":"image-keyboard-response","trial_index":116,"time_elapsed":277674,"internal_node_id":"0.0-5.0-2.0-1.17","screen_height":764,"screen_width":1601,"browser":"chrome","browser_version":"103.0.0","mobile":false,"os":"Windows 10","vsync_rate":59.88,"participant_id":"MAX_01","prestimulus_duration":471,"correct":true,"type":"Zollner","illusion_strength":-14,"illusion_difference":-1.4000000000000004,"block_number":2,"trial_number":18},{"rt":null,"stimulus":"<div style=\"font-size:60px;\">+</div>","response":null,"screen":"fixation","trial_type":"html-keyboard-response","trial_index":117,"time_elapsed":278112,"internal_node_id":"0.0-5.0-2.0-0.18","screen_height":764,"screen_width":1601,"browser":"chrome","browser_version":"103.0.0","mobile":false,"os":"Windows 10","vsync_rate":59.88,"participant_id":"MAX_01","trial_duration":428},{"rt":1017,"stimulus":"stimuli/Zollner_str70.0_diff-1.4.png","response":"arrowleft","screen":"Trial","block":"Zollner","correct_response":"arrowleft","trial_type":"image-keyboard-response","trial_index":118,"time_elapsed":279129,"internal_node_id":"0.0-5.0-2.0-1.18","screen_height":764,"screen_width":1601,"browser":"chrome","browser_version":"103.0.0","mobile":false,"os":"Windows 10","vsync_rate":59.88,"participant_id":"MAX_01","prestimulus_duration":438,"correct":true,"type":"Zollner","illusion_strength":70,"illusion_difference":-1.4000000000000004,"block_number":2,"trial_number":19},{"rt":null,"stimulus":"<div style=\"font-size:60px;\">+</div>","response":null,"screen":"fixation","trial_type":"html-keyboard-response","trial_index":119,"time_elapsed":279738,"internal_node_id":"0.0-5.0-2.0-0.19","screen_height":764,"screen_width":1601,"browser":"chrome","browser_version":"103.0.0","mobile":false,"os":"Windows 10","vsync_rate":59.88,"participant_id":"MAX_01","trial_duration":595},{"rt":856,"stimulus":"stimuli/Zollner_str42.0_diff-7.0.png","response":"arrowleft","screen":"Trial","block":"Zollner","correct_response":"arrowleft","trial_type":"image-keyboard-response","trial_index":120,"time_elapsed":280595,"internal_node_id":"0.0-5.0-2.0-1.19","screen_height":764,"screen_width":1601,"browser":"chrome","browser_version":"103.0.0","mobile":false,"os":"Windows 10","vsync_rate":59.88,"participant_id":"MAX_01","prestimulus_duration":609,"correct":true,"type":"Zollner","illusion_strength":42,"illusion_difference":-7,"block_number":2,"trial_number":20},{"rt":null,"stimulus":"<div style=\"font-size:60px;\">+</div>","response":null,"screen":"fixation","trial_type":"html-keyboard-response","trial_index":121,"time_elapsed":281004,"internal_node_id":"0.0-5.0-2.0-0.20","screen_height":764,"screen_width":1601,"browser":"chrome","browser_version":"103.0.0","mobile":false,"os":"Windows 10","vsync_rate":59.88,"participant_id":"MAX_01","trial_duration":387},{"rt":862,"stimulus":"stimuli/Zollner_str14.0_diff-7.0.png","response":"arrowleft","screen":"Trial","block":"Zollner","correct_response":"arrowleft","trial_type":"image-keyboard-response","trial_index":122,"time_elapsed":281867,"internal_node_id":"0.0-5.0-2.0-1.20","screen_height":764,"screen_width":1601,"browser":"chrome","browser_version":"103.0.0","mobile":false,"os":"Windows 10","vsync_rate":59.88,"participant_id":"MAX_01","prestimulus_duration":409,"correct":true,"type":"Zollner","illusion_strength":14,"illusion_difference":-7,"block_number":2,"trial_number":21},{"rt":null,"stimulus":"<div style=\"font-size:60px;\">+</div>","response":null,"screen":"fixation","trial_type":"html-keyboard-response","trial_index":123,"time_elapsed":282766,"internal_node_id":"0.0-5.0-2.0-0.21","screen_height":764,"screen_width":1601,"browser":"chrome","browser_version":"103.0.0","mobile":false,"os":"Windows 10","vsync_rate":59.88,"participant_id":"MAX_01","trial_duration":884},{"rt":690,"stimulus":"stimuli/Zollner_str-14.0_diff7.0.png","response":"arrowright","screen":"Trial","block":"Zollner","correct_response":"arrowright","trial_type":"image-keyboard-response","trial_index":124,"time_elapsed":283458,"internal_node_id":"0.0-5.0-2.0-1.21","screen_height":764,"screen_width":1601,"browser":"chrome","browser_version":"103.0.0","mobile":false,"os":"Windows 10","vsync_rate":59.88,"participant_id":"MAX_01","prestimulus_duration":899,"correct":true,"type":"Zollner","illusion_strength":-14,"illusion_difference":7,"block_number":2,"trial_number":22},{"rt":null,"stimulus":"<div style=\"font-size:60px;\">+</div>","response":null,"screen":"fixation","trial_type":"html-keyboard-response","trial_index":125,"time_elapsed":283781,"internal_node_id":"0.0-5.0-2.0-0.22","screen_height":764,"screen_width":1601,"browser":"chrome","browser_version":"103.0.0","mobile":false,"os":"Windows 10","vsync_rate":59.88,"participant_id":"MAX_01","trial_duration":315},{"rt":683,"stimulus":"stimuli/Zollner_str-42.0_diff-7.0.png","response":"arrowleft","screen":"Trial","block":"Zollner","correct_response":"arrowleft","trial_type":"image-keyboard-response","trial_index":126,"time_elapsed":284466,"internal_node_id":"0.0-5.0-2.0-1.22","screen_height":764,"screen_width":1601,"browser":"chrome","browser_version":"103.0.0","mobile":false,"os":"Windows 10","vsync_rate":59.88,"participant_id":"MAX_01","prestimulus_duration":323,"correct":true,"type":"Zollner","illusion_strength":-42,"illusion_difference":-7,"block_number":2,"trial_number":23},{"rt":null,"stimulus":"<div style=\"font-size:60px;\">+</div>","response":null,"screen":"fixation","trial_type":"html-keyboard-response","trial_index":127,"time_elapsed":284952,"internal_node_id":"0.0-5.0-2.0-0.23","screen_height":764,"screen_width":1601,"browser":"chrome","browser_version":"103.0.0","mobile":false,"os":"Windows 10","vsync_rate":59.88,"participant_id":"MAX_01","trial_duration":474},{"rt":967,"stimulus":"stimuli/Zollner_str-70.0_diff1.4.png","response":"arrowleft","screen":"Trial","block":"Zollner","correct_response":"arrowright","trial_type":"image-keyboard-response","trial_index":128,"time_elapsed":285921,"internal_node_id":"0.0-5.0-2.0-1.23","screen_height":764,"screen_width":1601,"browser":"chrome","browser_version":"103.0.0","mobile":false,"os":"Windows 10","vsync_rate":59.88,"participant_id":"MAX_01","prestimulus_duration":486,"correct":false,"type":"Zollner","illusion_strength":-70,"illusion_difference":1.3999999999999986,"block_number":2,"trial_number":24},{"rt":null,"stimulus":"<div style=\"font-size:60px;\">+</div>","response":null,"screen":"fixation","trial_type":"html-keyboard-response","trial_index":129,"time_elapsed":286670,"internal_node_id":"0.0-5.0-2.0-0.24","screen_height":764,"screen_width":1601,"browser":"chrome","browser_version":"103.0.0","mobile":false,"os":"Windows 10","vsync_rate":59.88,"participant_id":"MAX_01","trial_duration":736},{"rt":707,"stimulus":"stimuli/Zollner_str70.0_diff-7.0.png","response":"arrowleft","screen":"Trial","block":"Zollner","correct_response":"arrowleft","trial_type":"image-keyboard-response","trial_index":130,"time_elapsed":287378,"internal_node_id":"0.0-5.0-2.0-1.24","screen_height":764,"screen_width":1601,"browser":"chrome","browser_version":"103.0.0","mobile":false,"os":"Windows 10","vsync_rate":59.88,"participant_id":"MAX_01","prestimulus_duration":749,"correct":true,"type":"Zollner","illusion_strength":70,"illusion_difference":-7,"block_number":2,"trial_number":25},{"rt":null,"stimulus":"<div style=\"font-size:60px;\">+</div>","response":null,"screen":"fixation","trial_type":"html-keyboard-response","trial_index":131,"time_elapsed":287997,"internal_node_id":"0.0-5.0-2.0-0.25","screen_height":764,"screen_width":1601,"browser":"chrome","browser_version":"103.0.0","mobile":false,"os":"Windows 10","vsync_rate":59.88,"participant_id":"MAX_01","trial_duration":614},{"rt":1260,"stimulus":"stimuli/Zollner_str-42.0_diff4.2.png","response":"arrowright","screen":"Trial","block":"Zollner","correct_response":"arrowright","trial_type":"image-keyboard-response","trial_index":132,"time_elapsed":289258,"internal_node_id":"0.0-5.0-2.0-1.25","screen_height":764,"screen_width":1601,"browser":"chrome","browser_version":"103.0.0","mobile":false,"os":"Windows 10","vsync_rate":59.88,"participant_id":"MAX_01","prestimulus_duration":619,"correct":true,"type":"Zollner","illusion_strength":-42,"illusion_difference":4.199999999999999,"block_number":2,"trial_number":26},{"rt":null,"stimulus":"<div style=\"font-size:60px;\">+</div>","response":null,"screen":"fixation","trial_type":"html-keyboard-response","trial_index":133,"time_elapsed":290133,"internal_node_id":"0.0-5.0-2.0-0.26","screen_height":764,"screen_width":1601,"browser":"chrome","browser_version":"103.0.0","mobile":false,"os":"Windows 10","vsync_rate":59.88,"participant_id":"MAX_01","trial_duration":862},{"rt":763,"stimulus":"stimuli/Zollner_str-70.0_diff4.2.png","response":"arrowright","screen":"Trial","block":"Zollner","correct_response":"arrowright","trial_type":"image-keyboard-response","trial_index":134,"time_elapsed":290908,"internal_node_id":"0.0-5.0-2.0-1.26","screen_height":764,"screen_width":1601,"browser":"chrome","browser_version":"103.0.0","mobile":false,"os":"Windows 10","vsync_rate":59.88,"participant_id":"MAX_01","prestimulus_duration":875,"correct":true,"type":"Zollner","illusion_strength":-70,"illusion_difference":4.199999999999999,"block_number":2,"trial_number":27},{"rt":null,"stimulus":"<div style=\"font-size:60px;\">+</div>","response":null,"screen":"fixation","trial_type":"html-keyboard-response","trial_index":135,"time_elapsed":291866,"internal_node_id":"0.0-5.0-2.0-0.27","screen_height":764,"screen_width":1601,"browser":"chrome","browser_version":"103.0.0","mobile":false,"os":"Windows 10","vsync_rate":59.88,"participant_id":"MAX_01","trial_duration":942},{"rt":829,"stimulus":"stimuli/Zollner_str14.0_diff-4.2.png","response":"arrowleft","screen":"Trial","block":"Zollner","correct_response":"arrowleft","trial_type":"image-keyboard-response","trial_index":136,"time_elapsed":292697,"internal_node_id":"0.0-5.0-2.0-1.27","screen_height":764,"screen_width":1601,"browser":"chrome","browser_version":"103.0.0","mobile":false,"os":"Windows 10","vsync_rate":59.88,"participant_id":"MAX_01","prestimulus_duration":958,"correct":true,"type":"Zollner","illusion_strength":14,"illusion_difference":-4.2,"block_number":2,"trial_number":28},{"rt":null,"stimulus":"<div style=\"font-size:60px;\">+</div>","response":null,"screen":"fixation","trial_type":"html-keyboard-response","trial_index":137,"time_elapsed":293470,"internal_node_id":"0.0-5.0-2.0-0.28","screen_height":764,"screen_width":1601,"browser":"chrome","browser_version":"103.0.0","mobile":false,"os":"Windows 10","vsync_rate":59.88,"participant_id":"MAX_01","trial_duration":765},{"rt":869,"stimulus":"stimuli/Zollner_str42.0_diff-1.4.png","response":"arrowleft","screen":"Trial","block":"Zollner","correct_response":"arrowleft","trial_type":"image-keyboard-response","trial_index":138,"time_elapsed":294340,"internal_node_id":"0.0-5.0-2.0-1.28","screen_height":764,"screen_width":1601,"browser":"chrome","browser_version":"103.0.0","mobile":false,"os":"Windows 10","vsync_rate":59.88,"participant_id":"MAX_01","prestimulus_duration":773,"correct":true,"type":"Zollner","illusion_strength":42,"illusion_difference":-1.4000000000000004,"block_number":2,"trial_number":29},{"rt":null,"stimulus":"<div style=\"font-size:60px;\">+</div>","response":null,"screen":"fixation","trial_type":"html-keyboard-response","trial_index":139,"time_elapsed":294998,"internal_node_id":"0.0-5.0-2.0-0.29","screen_height":764,"screen_width":1601,"browser":"chrome","browser_version":"103.0.0","mobile":false,"os":"Windows 10","vsync_rate":59.88,"participant_id":"MAX_01","trial_duration":650},{"rt":699,"stimulus":"stimuli/Zollner_str-70.0_diff-7.0.png","response":"arrowleft","screen":"Trial","block":"Zollner","correct_response":"arrowleft","trial_type":"image-keyboard-response","trial_index":140,"time_elapsed":295700,"internal_node_id":"0.0-5.0-2.0-1.29","screen_height":764,"screen_width":1601,"browser":"chrome","browser_version":"103.0.0","mobile":false,"os":"Windows 10","vsync_rate":59.88,"participant_id":"MAX_01","prestimulus_duration":658,"correct":true,"type":"Zollner","illusion_strength":-70,"illusion_difference":-7,"block_number":2,"trial_number":30},{"rt":null,"stimulus":"<div style=\"font-size:60px;\">+</div>","response":null,"screen":"fixation","trial_type":"html-keyboard-response","trial_index":141,"time_elapsed":296687,"internal_node_id":"0.0-5.0-2.0-0.30","screen_height":764,"screen_width":1601,"browser":"chrome","browser_version":"103.0.0","mobile":false,"os":"Windows 10","vsync_rate":59.88,"participant_id":"MAX_01","trial_duration":970},{"rt":736,"stimulus":"stimuli/Zollner_str42.0_diff1.4.png","response":"arrowleft","screen":"Trial","block":"Zollner","correct_response":"arrowright","trial_type":"image-keyboard-response","trial_index":142,"time_elapsed":297425,"internal_node_id":"0.0-5.0-2.0-1.30","screen_height":764,"screen_width":1601,"browser":"chrome","browser_version":"103.0.0","mobile":false,"os":"Windows 10","vsync_rate":59.88,"participant_id":"MAX_01","prestimulus_duration":987,"correct":false,"type":"Zollner","illusion_strength":42,"illusion_difference":1.3999999999999986,"block_number":2,"trial_number":31},{"rt":null,"stimulus":"<div style=\"font-size:60px;\">+</div>","response":null,"screen":"fixation","trial_type":"html-keyboard-response","trial_index":143,"time_elapsed":298016,"internal_node_id":"0.0-5.0-2.0-0.31","screen_height":764,"screen_width":1601,"browser":"chrome","browser_version":"103.0.0","mobile":false,"os":"Windows 10","vsync_rate":59.88,"participant_id":"MAX_01","trial_duration":580},{"rt":833,"stimulus":"stimuli/Zollner_str-42.0_diff-4.2.png","response":"arrowleft","screen":"Trial","block":"Zollner","correct_response":"arrowleft","trial_type":"image-keyboard-response","trial_index":144,"time_elapsed":298851,"internal_node_id":"0.0-5.0-2.0-1.31","screen_height":764,"screen_width":1601,"browser":"chrome","browser_version":"103.0.0","mobile":false,"os":"Windows 10","vsync_rate":59.88,"participant_id":"MAX_01","prestimulus_duration":591,"correct":true,"type":"Zollner","illusion_strength":-42,"illusion_difference":-4.2,"block_number":2,"trial_number":32},{"rt":null,"stimulus":"<div style=\"font-size:60px;\">+</div>","response":null,"screen":"fixation","trial_type":"html-keyboard-response","trial_index":145,"time_elapsed":299586,"internal_node_id":"0.0-5.0-2.0-0.32","screen_height":764,"screen_width":1601,"browser":"chrome","browser_version":"103.0.0","mobile":false,"os":"Windows 10","vsync_rate":59.88,"participant_id":"MAX_01","trial_duration":719},{"rt":732,"stimulus":"stimuli/Zollner_str-70.0_diff-4.2.png","response":"arrowleft","screen":"Trial","block":"Zollner","correct_response":"arrowleft","trial_type":"image-keyboard-response","trial_index":146,"time_elapsed":300321,"internal_node_id":"0.0-5.0-2.0-1.32","screen_height":764,"screen_width":1601,"browser":"chrome","browser_version":"103.0.0","mobile":false,"os":"Windows 10","vsync_rate":59.88,"participant_id":"MAX_01","prestimulus_duration":735,"correct":true,"type":"Zollner","illusion_strength":-70,"illusion_difference":-4.2,"block_number":2,"trial_number":33},{"rt":null,"stimulus":"<div style=\"font-size:60px;\">+</div>","response":null,"screen":"fixation","trial_type":"html-keyboard-response","trial_index":147,"time_elapsed":301202,"internal_node_id":"0.0-5.0-2.0-0.33","screen_height":764,"screen_width":1601,"browser":"chrome","browser_version":"103.0.0","mobile":false,"os":"Windows 10","vsync_rate":59.88,"participant_id":"MAX_01","trial_duration":870},{"rt":735,"stimulus":"stimuli/Zollner_str70.0_diff7.0.png","response":"arrowright","screen":"Trial","block":"Zollner","correct_response":"arrowright","trial_type":"image-keyboard-response","trial_index":148,"time_elapsed":301939,"internal_node_id":"0.0-5.0-2.0-1.33","screen_height":764,"screen_width":1601,"browser":"chrome","browser_version":"103.0.0","mobile":false,"os":"Windows 10","vsync_rate":59.88,"participant_id":"MAX_01","prestimulus_duration":881,"correct":true,"type":"Zollner","illusion_strength":70,"illusion_difference":7,"block_number":2,"trial_number":34},{"rt":null,"stimulus":"<div style=\"font-size:60px;\">+</div>","response":null,"screen":"fixation","trial_type":"html-keyboard-response","trial_index":149,"time_elapsed":302921,"internal_node_id":"0.0-5.0-2.0-0.34","screen_height":764,"screen_width":1601,"browser":"chrome","browser_version":"103.0.0","mobile":false,"os":"Windows 10","vsync_rate":59.88,"participant_id":"MAX_01","trial_duration":965},{"rt":1054,"stimulus":"stimuli/Zollner_str42.0_diff-4.2.png","response":"arrowleft","screen":"Trial","block":"Zollner","correct_response":"arrowleft","trial_type":"image-keyboard-response","trial_index":150,"time_elapsed":303977,"internal_node_id":"0.0-5.0-2.0-1.34","screen_height":764,"screen_width":1601,"browser":"chrome","browser_version":"103.0.0","mobile":false,"os":"Windows 10","vsync_rate":59.88,"participant_id":"MAX_01","prestimulus_duration":982,"correct":true,"type":"Zollner","illusion_strength":42,"illusion_difference":-4.2,"block_number":2,"trial_number":35},{"rt":null,"stimulus":"<div style=\"font-size:60px;\">+</div>","response":null,"screen":"fixation","trial_type":"html-keyboard-response","trial_index":151,"time_elapsed":304888,"internal_node_id":"0.0-5.0-2.0-0.35","screen_height":764,"screen_width":1601,"browser":"chrome","browser_version":"103.0.0","mobile":false,"os":"Windows 10","vsync_rate":59.88,"participant_id":"MAX_01","trial_duration":908},{"rt":1115,"stimulus":"stimuli/Zollner_str70.0_diff-4.2.png","response":"arrowleft","screen":"Trial","block":"Zollner","correct_response":"arrowleft","trial_type":"image-keyboard-response","trial_index":152,"time_elapsed":306005,"internal_node_id":"0.0-5.0-2.0-1.35","screen_height":764,"screen_width":1601,"browser":"chrome","browser_version":"103.0.0","mobile":false,"os":"Windows 10","vsync_rate":59.88,"participant_id":"MAX_01","prestimulus_duration":911,"correct":true,"type":"Zollner","illusion_strength":70,"illusion_difference":-4.2,"block_number":2,"trial_number":36},{"rt":6875,"stimulus":"<p>Your score for this illusion is <p style=\"color: black; font-size: 48px; font-weight: bold;\">3991</p><hr><hr><p>Can you do better in the next illusion?</p>","response":0,"screen":"block_results","trial_type":"html-button-response","trial_index":153,"time_elapsed":312884,"internal_node_id":"0.0-5.0-3.0","screen_height":764,"screen_width":1601,"browser":"chrome","browser_version":"103.0.0","mobile":false,"os":"Windows 10","vsync_rate":59.88,"participant_id":"MAX_01"},{"success":true,"timeout":false,"failed_images":[],"failed_audio":[],"failed_video":[],"trial_type":"preload","trial_index":154,"time_elapsed":312886,"internal_node_id":"0.0-6.0-0.0","screen_height":764,"screen_width":1601,"browser":"chrome","browser_version":"103.0.0","mobile":false,"os":"Windows 10","vsync_rate":59.88,"participant_id":"MAX_01"},{"rt":23914,"stimulus":"<p><b>Part 3</b></p><p>In this part, two horizontal red lines will appear one above the other.</p><p>Your task is to select which <b>line is longer</b> in size as fast as you can, without making errors.</p><p>Don't get distracted by the surrounding black lines!</p><p>Press <b>the UP or the DOWN arrow</b> to indicate where is the longest <b>red line.</b></p><div style='float: center'><img src='utils/stimuli_demo/Ponzo_Demo.png' height='300'></img><p><img src='utils/answer/answer_updown_keyboard.PNG' height='150'></img></p><p class='small'>In this example, the correct answer is the <b>UP arrow</b>.</p></div><p>Are you ready? <b>Press ENTER to start</b></p>","response":"enter","trial_type":"html-keyboard-response","trial_index":155,"time_elapsed":336801,"internal_node_id":"0.0-6.0-1.0","screen_height":764,"screen_width":1601,"browser":"chrome","browser_version":"103.0.0","mobile":false,"os":"Windows 10","vsync_rate":59.88,"participant_id":"MAX_01"},{"rt":null,"stimulus":"<div style=\"font-size:60px;\">+</div>","response":null,"screen":"fixation","trial_type":"html-keyboard-response","trial_index":156,"time_elapsed":338330,"internal_node_id":"0.0-6.0-2.0-0.0","screen_height":764,"screen_width":1601,"browser":"chrome","browser_version":"103.0.0","mobile":false,"os":"Windows 10","vsync_rate":59.88,"participant_id":"MAX_01","trial_duration":998},{"rt":879,"stimulus":"stimuli/Ponzo_str-4.0_diff-0.3.png","response":"arrowup","screen":"Trial","block":"Ponzo","correct_response":"arrowdown","trial_type":"image-keyboard-response","trial_index":157,"time_elapsed":339211,"internal_node_id":"0.0-6.0-2.0-1.0","screen_height":764,"screen_width":1601,"browser":"chrome","browser_version":"103.0.0","mobile":false,"os":"Windows 10","vsync_rate":59.88,"participant_id":"MAX_01","prestimulus_duration":1529,"correct":false,"type":"Ponzo","illusion_strength":-4,"illusion_difference":-0.3,"block_number":3,"trial_number":1},{"rt":null,"stimulus":"<div style=\"font-size:60px;\">+</div>","response":null,"screen":"fixation","trial_type":"html-keyboard-response","trial_index":158,"time_elapsed":339908,"internal_node_id":"0.0-6.0-2.0-0.1","screen_height":764,"screen_width":1601,"browser":"chrome","browser_version":"103.0.0","mobile":false,"os":"Windows 10","vsync_rate":59.88,"participant_id":"MAX_01","trial_duration":690},{"rt":844,"stimulus":"stimuli/Ponzo_str-20.0_diff0.06.png","response":"arrowup","screen":"Trial","block":"Ponzo","correct_response":"arrowup","trial_type":"image-keyboard-response","trial_index":159,"time_elapsed":340755,"internal_node_id":"0.0-6.0-2.0-1.1","screen_height":764,"screen_width":1601,"browser":"chrome","browser_version":"103.0.0","mobile":false,"os":"Windows 10","vsync_rate":59.88,"participant_id":"MAX_01","prestimulus_duration":697,"correct":true,"type":"Ponzo","illusion_strength":-20,"illusion_difference":0.06,"block_number":3,"trial_number":2},{"rt":null,"stimulus":"<div style=\"font-size:60px;\">+</div>","response":null,"screen":"fixation","trial_type":"html-keyboard-response","trial_index":160,"time_elapsed":341127,"internal_node_id":"0.0-6.0-2.0-0.2","screen_height":764,"screen_width":1601,"browser":"chrome","browser_version":"103.0.0","mobile":false,"os":"Windows 10","vsync_rate":59.88,"participant_id":"MAX_01","trial_duration":368},{"rt":887,"stimulus":"stimuli/Ponzo_str4.0_diff-0.18.png","response":"arrowdown","screen":"Trial","block":"Ponzo","correct_response":"arrowdown","trial_type":"image-keyboard-response","trial_index":161,"time_elapsed":342017,"internal_node_id":"0.0-6.0-2.0-1.2","screen_height":764,"screen_width":1601,"browser":"chrome","browser_version":"103.0.0","mobile":false,"os":"Windows 10","vsync_rate":59.88,"participant_id":"MAX_01","prestimulus_duration":372,"correct":true,"type":"Ponzo","illusion_strength":4,"illusion_difference":-0.18,"block_number":3,"trial_number":3},{"rt":null,"stimulus":"<div style=\"font-size:60px;\">+</div>","response":null,"screen":"fixation","trial_type":"html-keyboard-response","trial_index":162,"time_elapsed":342798,"internal_node_id":"0.0-6.0-2.0-0.3","screen_height":764,"screen_width":1601,"browser":"chrome","browser_version":"103.0.0","mobile":false,"os":"Windows 10","vsync_rate":59.88,"participant_id":"MAX_01","trial_duration":765},{"rt":723,"stimulus":"stimuli/Ponzo_str4.0_diff0.3.png","response":"arrowup","screen":"Trial","block":"Ponzo","correct_response":"arrowup","trial_type":"image-keyboard-response","trial_index":163,"time_elapsed":343521,"internal_node_id":"0.0-6.0-2.0-1.3","screen_height":764,"screen_width":1601,"browser":"chrome","browser_version":"103.0.0","mobile":false,"os":"Windows 10","vsync_rate":59.88,"participant_id":"MAX_01","prestimulus_duration":781,"correct":true,"type":"Ponzo","illusion_strength":4,"illusion_difference":0.3,"block_number":3,"trial_number":4},{"rt":null,"stimulus":"<div style=\"font-size:60px;\">+</div>","response":null,"screen":"fixation","trial_type":"html-keyboard-response","trial_index":164,"time_elapsed":344050,"internal_node_id":"0.0-6.0-2.0-0.4","screen_height":764,"screen_width":1601,"browser":"chrome","browser_version":"103.0.0","mobile":false,"os":"Windows 10","vsync_rate":59.88,"participant_id":"MAX_01","trial_duration":511},{"rt":1447,"stimulus":"stimuli/Ponzo_str20.0_diff-0.06.png","response":"arrowup","screen":"Trial","block":"Ponzo","correct_response":"arrowdown","trial_type":"image-keyboard-response","trial_index":165,"time_elapsed":345499,"internal_node_id":"0.0-6.0-2.0-1.4","screen_height":764,"screen_width":1601,"browser":"chrome","browser_version":"103.0.0","mobile":false,"os":"Windows 10","vsync_rate":59.88,"participant_id":"MAX_01","prestimulus_duration":529,"correct":false,"type":"Ponzo","illusion_strength":20,"illusion_difference":-0.06,"block_number":3,"trial_number":5},{"rt":null,"stimulus":"<div style=\"font-size:60px;\">+</div>","response":null,"screen":"fixation","trial_type":"html-keyboard-response","trial_index":166,"time_elapsed":346174,"internal_node_id":"0.0-6.0-2.0-0.5","screen_height":764,"screen_width":1601,"browser":"chrome","browser_version":"103.0.0","mobile":false,"os":"Windows 10","vsync_rate":59.88,"participant_id":"MAX_01","trial_duration":666},{"rt":994,"stimulus":"stimuli/Ponzo_str20.0_diff0.06.png","response":"arrowdown","screen":"Trial","block":"Ponzo","correct_response":"arrowup","trial_type":"image-keyboard-response","trial_index":167,"time_elapsed":347169,"internal_node_id":"0.0-6.0-2.0-1.5","screen_height":764,"screen_width":1601,"browser":"chrome","browser_version":"103.0.0","mobile":false,"os":"Windows 10","vsync_rate":59.88,"participant_id":"MAX_01","prestimulus_duration":675,"correct":false,"type":"Ponzo","illusion_strength":20,"illusion_difference":0.06,"block_number":3,"trial_number":6},{"rt":null,"stimulus":"<div style=\"font-size:60px;\">+</div>","response":null,"screen":"fixation","trial_type":"html-keyboard-response","trial_index":168,"time_elapsed":347998,"internal_node_id":"0.0-6.0-2.0-0.6","screen_height":764,"screen_width":1601,"browser":"chrome","browser_version":"103.0.0","mobile":false,"os":"Windows 10","vsync_rate":59.88,"participant_id":"MAX_01","trial_duration":813},{"rt":978,"stimulus":"stimuli/Ponzo_str20.0_diff0.18.png","response":"arrowdown","screen":"Trial","block":"Ponzo","correct_response":"arrowup","trial_type":"image-keyboard-response","trial_index":169,"time_elapsed":348979,"internal_node_id":"0.0-6.0-2.0-1.6","screen_height":764,"screen_width":1601,"browser":"chrome","browser_version":"103.0.0","mobile":false,"os":"Windows 10","vsync_rate":59.88,"participant_id":"MAX_01","prestimulus_duration":829,"correct":false,"type":"Ponzo","illusion_strength":20,"illusion_difference":0.18,"block_number":3,"trial_number":7},{"rt":null,"stimulus":"<div style=\"font-size:60px;\">+</div>","response":null,"screen":"fixation","trial_type":"html-keyboard-response","trial_index":170,"time_elapsed":349254,"internal_node_id":"0.0-6.0-2.0-0.7","screen_height":764,"screen_width":1601,"browser":"chrome","browser_version":"103.0.0","mobile":false,"os":"Windows 10","vsync_rate":59.88,"participant_id":"MAX_01","trial_duration":258},{"rt":928,"stimulus":"stimuli/Ponzo_str4.0_diff-0.06.png","response":"arrowdown","screen":"Trial","block":"Ponzo","correct_response":"arrowdown","trial_type":"image-keyboard-response","trial_index":171,"time_elapsed":350185,"internal_node_id":"0.0-6.0-2.0-1.7","screen_height":764,"screen_width":1601,"browser":"chrome","browser_version":"103.0.0","mobile":false,"os":"Windows 10","vsync_rate":59.88,"participant_id":"MAX_01","prestimulus_duration":275,"correct":true,"type":"Ponzo","illusion_strength":4,"illusion_difference":-0.06,"block_number":3,"trial_number":8},{"rt":null,"stimulus":"<div style=\"font-size:60px;\">+</div>","response":null,"screen":"fixation","trial_type":"html-keyboard-response","trial_index":172,"time_elapsed":351066,"internal_node_id":"0.0-6.0-2.0-0.8","screen_height":764,"screen_width":1601,"browser":"chrome","browser_version":"103.0.0","mobile":false,"os":"Windows 10","vsync_rate":59.88,"participant_id":"MAX_01","trial_duration":875},{"rt":918,"stimulus":"stimuli/Ponzo_str12.0_diff-0.18.png","response":"arrowdown","screen":"Trial","block":"Ponzo","correct_response":"arrowdown","trial_type":"image-keyboard-response","trial_index":173,"time_elapsed":351987,"internal_node_id":"0.0-6.0-2.0-1.8","screen_height":764,"screen_width":1601,"browser":"chrome","browser_version":"103.0.0","mobile":false,"os":"Windows 10","vsync_rate":59.88,"participant_id":"MAX_01","prestimulus_duration":881,"correct":true,"type":"Ponzo","illusion_strength":12,"illusion_difference":-0.18,"block_number":3,"trial_number":9},{"rt":null,"stimulus":"<div style=\"font-size:60px;\">+</div>","response":null,"screen":"fixation","trial_type":"html-keyboard-response","trial_index":174,"time_elapsed":352327,"internal_node_id":"0.0-6.0-2.0-0.9","screen_height":764,"screen_width":1601,"browser":"chrome","browser_version":"103.0.0","mobile":false,"os":"Windows 10","vsync_rate":59.88,"participant_id":"MAX_01","trial_duration":329},{"rt":817,"stimulus":"stimuli/Ponzo_str-20.0_diff-0.06.png","response":"arrowdown","screen":"Trial","block":"Ponzo","correct_response":"arrowdown","trial_type":"image-keyboard-response","trial_index":175,"time_elapsed":353145,"internal_node_id":"0.0-6.0-2.0-1.9","screen_height":764,"screen_width":1601,"browser":"chrome","browser_version":"103.0.0","mobile":false,"os":"Windows 10","vsync_rate":59.88,"participant_id":"MAX_01","prestimulus_duration":340,"correct":true,"type":"Ponzo","illusion_strength":-20,"illusion_difference":-0.06,"block_number":3,"trial_number":10},{"rt":null,"stimulus":"<div style=\"font-size:60px;\">+</div>","response":null,"screen":"fixation","trial_type":"html-keyboard-response","trial_index":176,"time_elapsed":353460,"internal_node_id":"0.0-6.0-2.0-0.10","screen_height":764,"screen_width":1601,"browser":"chrome","browser_version":"103.0.0","mobile":false,"os":"Windows 10","vsync_rate":59.88,"participant_id":"MAX_01","trial_duration":312},{"rt":924,"stimulus":"stimuli/Ponzo_str-20.0_diff-0.3.png","response":"arrowdown","screen":"Trial","block":"Ponzo","correct_response":"arrowdown","trial_type":"image-keyboard-response","trial_index":177,"time_elapsed":354385,"internal_node_id":"0.0-6.0-2.0-1.10","screen_height":764,"screen_width":1601,"browser":"chrome","browser_version":"103.0.0","mobile":false,"os":"Windows 10","vsync_rate":59.88,"participant_id":"MAX_01","prestimulus_duration":315,"correct":true,"type":"Ponzo","illusion_strength":-20,"illusion_difference":-0.3,"block_number":3,"trial_number":11},{"rt":null,"stimulus":"<div style=\"font-size:60px;\">+</div>","response":null,"screen":"fixation","trial_type":"html-keyboard-response","trial_index":178,"time_elapsed":354832,"internal_node_id":"0.0-6.0-2.0-0.11","screen_height":764,"screen_width":1601,"browser":"chrome","browser_version":"103.0.0","mobile":false,"os":"Windows 10","vsync_rate":59.88,"participant_id":"MAX_01","trial_duration":435},{"rt":881,"stimulus":"stimuli/Ponzo_str-12.0_diff0.18.png","response":"arrowup","screen":"Trial","block":"Ponzo","correct_response":"arrowup","trial_type":"image-keyboard-response","trial_index":179,"time_elapsed":355715,"internal_node_id":"0.0-6.0-2.0-1.11","screen_height":764,"screen_width":1601,"browser":"chrome","browser_version":"103.0.0","mobile":false,"os":"Windows 10","vsync_rate":59.88,"participant_id":"MAX_01","prestimulus_duration":447,"correct":true,"type":"Ponzo","illusion_strength":-12,"illusion_difference":0.18,"block_number":3,"trial_number":12},{"rt":null,"stimulus":"<div style=\"font-size:60px;\">+</div>","response":null,"screen":"fixation","trial_type":"html-keyboard-response","trial_index":180,"time_elapsed":356278,"internal_node_id":"0.0-6.0-2.0-0.12","screen_height":764,"screen_width":1601,"browser":"chrome","browser_version":"103.0.0","mobile":false,"os":"Windows 10","vsync_rate":59.88,"participant_id":"MAX_01","trial_duration":555},{"rt":768,"stimulus":"stimuli/Ponzo_str4.0_diff-0.3.png","response":"arrowdown","screen":"Trial","block":"Ponzo","correct_response":"arrowdown","trial_type":"image-keyboard-response","trial_index":181,"time_elapsed":357049,"internal_node_id":"0.0-6.0-2.0-1.12","screen_height":764,"screen_width":1601,"browser":"chrome","browser_version":"103.0.0","mobile":false,"os":"Windows 10","vsync_rate":59.88,"participant_id":"MAX_01","prestimulus_duration":563,"correct":true,"type":"Ponzo","illusion_strength":4,"illusion_difference":-0.3,"block_number":3,"trial_number":13},{"rt":null,"stimulus":"<div style=\"font-size:60px;\">+</div>","response":null,"screen":"fixation","trial_type":"html-keyboard-response","trial_index":182,"time_elapsed":357958,"internal_node_id":"0.0-6.0-2.0-0.13","screen_height":764,"screen_width":1601,"browser":"chrome","browser_version":"103.0.0","mobile":false,"os":"Windows 10","vsync_rate":59.88,"participant_id":"MAX_01","trial_duration":895},{"rt":772,"stimulus":"stimuli/Ponzo_str-4.0_diff-0.06.png","response":"arrowdown","screen":"Trial","block":"Ponzo","correct_response":"arrowdown","trial_type":"image-keyboard-response","trial_index":183,"time_elapsed":358731,"internal_node_id":"0.0-6.0-2.0-1.13","screen_height":764,"screen_width":1601,"browser":"chrome","browser_version":"103.0.0","mobile":false,"os":"Windows 10","vsync_rate":59.88,"participant_id":"MAX_01","prestimulus_duration":909,"correct":true,"type":"Ponzo","illusion_strength":-4,"illusion_difference":-0.06,"block_number":3,"trial_number":14},{"rt":null,"stimulus":"<div style=\"font-size:60px;\">+</div>","response":null,"screen":"fixation","trial_type":"html-keyboard-response","trial_index":184,"time_elapsed":359314,"internal_node_id":"0.0-6.0-2.0-0.14","screen_height":764,"screen_width":1601,"browser":"chrome","browser_version":"103.0.0","mobile":false,"os":"Windows 10","vsync_rate":59.88,"participant_id":"MAX_01","trial_duration":572},{"rt":721,"stimulus":"stimuli/Ponzo_str-20.0_diff0.18.png","response":"arrowup","screen":"Trial","block":"Ponzo","correct_response":"arrowup","trial_type":"image-keyboard-response","trial_index":185,"time_elapsed":360036,"internal_node_id":"0.0-6.0-2.0-1.14","screen_height":764,"screen_width":1601,"browser":"chrome","browser_version":"103.0.0","mobile":false,"os":"Windows 10","vsync_rate":59.88,"participant_id":"MAX_01","prestimulus_duration":583,"correct":true,"type":"Ponzo","illusion_strength":-20,"illusion_difference":0.18,"block_number":3,"trial_number":15},{"rt":null,"stimulus":"<div style=\"font-size:60px;\">+</div>","response":null,"screen":"fixation","trial_type":"html-keyboard-response","trial_index":186,"time_elapsed":360687,"internal_node_id":"0.0-6.0-2.0-0.15","screen_height":764,"screen_width":1601,"browser":"chrome","browser_version":"103.0.0","mobile":false,"os":"Windows 10","vsync_rate":59.88,"participant_id":"MAX_01","trial_duration":647},{"rt":1106,"stimulus":"stimuli/Ponzo_str-4.0_diff0.18.png","response":"arrowup","screen":"Trial","block":"Ponzo","correct_response":"arrowup","trial_type":"image-keyboard-response","trial_index":187,"time_elapsed":361796,"internal_node_id":"0.0-6.0-2.0-1.15","screen_height":764,"screen_width":1601,"browser":"chrome","browser_version":"103.0.0","mobile":false,"os":"Windows 10","vsync_rate":59.88,"participant_id":"MAX_01","prestimulus_duration":651,"correct":true,"type":"Ponzo","illusion_strength":-4,"illusion_difference":0.18,"block_number":3,"trial_number":16},{"rt":null,"stimulus":"<div style=\"font-size:60px;\">+</div>","response":null,"screen":"fixation","trial_type":"html-keyboard-response","trial_index":188,"time_elapsed":362062,"internal_node_id":"0.0-6.0-2.0-0.16","screen_height":764,"screen_width":1601,"browser":"chrome","browser_version":"103.0.0","mobile":false,"os":"Windows 10","vsync_rate":59.88,"participant_id":"MAX_01","trial_duration":262},{"rt":769,"stimulus":"stimuli/Ponzo_str-20.0_diff-0.18.png","response":"arrowdown","screen":"Trial","block":"Ponzo","correct_response":"arrowdown","trial_type":"image-keyboard-response","trial_index":189,"time_elapsed":362835,"internal_node_id":"0.0-6.0-2.0-1.16","screen_height":764,"screen_width":1601,"browser":"chrome","browser_version":"103.0.0","mobile":false,"os":"Windows 10","vsync_rate":59.88,"participant_id":"MAX_01","prestimulus_duration":266,"correct":true,"type":"Ponzo","illusion_strength":-20,"illusion_difference":-0.18,"block_number":3,"trial_number":17},{"rt":null,"stimulus":"<div style=\"font-size:60px;\">+</div>","response":null,"screen":"fixation","trial_type":"html-keyboard-response","trial_index":190,"time_elapsed":363704,"internal_node_id":"0.0-6.0-2.0-0.17","screen_height":764,"screen_width":1601,"browser":"chrome","browser_version":"103.0.0","mobile":false,"os":"Windows 10","vsync_rate":59.88,"participant_id":"MAX_01","trial_duration":859},{"rt":1033,"stimulus":"stimuli/Ponzo_str12.0_diff0.3.png","response":"arrowup","screen":"Trial","block":"Ponzo","correct_response":"arrowup","trial_type":"image-keyboard-response","trial_index":191,"time_elapsed":364740,"internal_node_id":"0.0-6.0-2.0-1.17","screen_height":764,"screen_width":1601,"browser":"chrome","browser_version":"103.0.0","mobile":false,"os":"Windows 10","vsync_rate":59.88,"participant_id":"MAX_01","prestimulus_duration":869,"correct":true,"type":"Ponzo","illusion_strength":12,"illusion_difference":0.3,"block_number":3,"trial_number":18},{"rt":null,"stimulus":"<div style=\"font-size:60px;\">+</div>","response":null,"screen":"fixation","trial_type":"html-keyboard-response","trial_index":192,"time_elapsed":365108,"internal_node_id":"0.0-6.0-2.0-0.18","screen_height":764,"screen_width":1601,"browser":"chrome","browser_version":"103.0.0","mobile":false,"os":"Windows 10","vsync_rate":59.88,"participant_id":"MAX_01","trial_duration":351},{"rt":1301,"stimulus":"stimuli/Ponzo_str12.0_diff-0.3.png","response":"arrowdown","screen":"Trial","block":"Ponzo","correct_response":"arrowdown","trial_type":"image-keyboard-response","trial_index":193,"time_elapsed":366410,"internal_node_id":"0.0-6.0-2.0-1.18","screen_height":764,"screen_width":1601,"browser":"chrome","browser_version":"103.0.0","mobile":false,"os":"Windows 10","vsync_rate":59.88,"participant_id":"MAX_01","prestimulus_duration":368,"correct":true,"type":"Ponzo","illusion_strength":12,"illusion_difference":-0.3,"block_number":3,"trial_number":19},{"rt":null,"stimulus":"<div style=\"font-size:60px;\">+</div>","response":null,"screen":"fixation","trial_type":"html-keyboard-response","trial_index":194,"time_elapsed":367166,"internal_node_id":"0.0-6.0-2.0-0.19","screen_height":764,"screen_width":1601,"browser":"chrome","browser_version":"103.0.0","mobile":false,"os":"Windows 10","vsync_rate":59.88,"participant_id":"MAX_01","trial_duration":748},{"rt":1052,"stimulus":"stimuli/Ponzo_str4.0_diff0.18.png","response":"arrowup","screen":"Trial","block":"Ponzo","correct_response":"arrowup","trial_type":"image-keyboard-response","trial_index":195,"time_elapsed":368218,"internal_node_id":"0.0-6.0-2.0-1.19","screen_height":764,"screen_width":1601,"browser":"chrome","browser_version":"103.0.0","mobile":false,"os":"Windows 10","vsync_rate":59.88,"participant_id":"MAX_01","prestimulus_duration":756,"correct":true,"type":"Ponzo","illusion_strength":4,"illusion_difference":0.18,"block_number":3,"trial_number":20},{"rt":null,"stimulus":"<div style=\"font-size:60px;\">+</div>","response":null,"screen":"fixation","trial_type":"html-keyboard-response","trial_index":196,"time_elapsed":368905,"internal_node_id":"0.0-6.0-2.0-0.20","screen_height":764,"screen_width":1601,"browser":"chrome","browser_version":"103.0.0","mobile":false,"os":"Windows 10","vsync_rate":59.88,"participant_id":"MAX_01","trial_duration":682},{"rt":945,"stimulus":"stimuli/Ponzo_str12.0_diff0.06.png","response":"arrowdown","screen":"Trial","block":"Ponzo","correct_response":"arrowup","trial_type":"image-keyboard-response","trial_index":197,"time_elapsed":369853,"internal_node_id":"0.0-6.0-2.0-1.20","screen_height":764,"screen_width":1601,"browser":"chrome","browser_version":"103.0.0","mobile":false,"os":"Windows 10","vsync_rate":59.88,"participant_id":"MAX_01","prestimulus_duration":687,"correct":false,"type":"Ponzo","illusion_strength":12,"illusion_difference":0.06,"block_number":3,"trial_number":21},{"rt":null,"stimulus":"<div style=\"font-size:60px;\">+</div>","response":null,"screen":"fixation","trial_type":"html-keyboard-response","trial_index":198,"time_elapsed":370717,"internal_node_id":"0.0-6.0-2.0-0.21","screen_height":764,"screen_width":1601,"browser":"chrome","browser_version":"103.0.0","mobile":false,"os":"Windows 10","vsync_rate":59.88,"participant_id":"MAX_01","trial_duration":858},{"rt":956,"stimulus":"stimuli/Ponzo_str-12.0_diff-0.18.png","response":"arrowdown","screen":"Trial","block":"Ponzo","correct_response":"arrowdown","trial_type":"image-keyboard-response","trial_index":199,"time_elapsed":371675,"internal_node_id":"0.0-6.0-2.0-1.21","screen_height":764,"screen_width":1601,"browser":"chrome","browser_version":"103.0.0","mobile":false,"os":"Windows 10","vsync_rate":59.88,"participant_id":"MAX_01","prestimulus_duration":864,"correct":true,"type":"Ponzo","illusion_strength":-12,"illusion_difference":-0.18,"block_number":3,"trial_number":22},{"rt":null,"stimulus":"<div style=\"font-size:60px;\">+</div>","response":null,"screen":"fixation","trial_type":"html-keyboard-response","trial_index":200,"time_elapsed":372137,"internal_node_id":"0.0-6.0-2.0-0.22","screen_height":764,"screen_width":1601,"browser":"chrome","browser_version":"103.0.0","mobile":false,"os":"Windows 10","vsync_rate":59.88,"participant_id":"MAX_01","trial_duration":451},{"rt":1034,"stimulus":"stimuli/Ponzo_str12.0_diff-0.06.png","response":"arrowup","screen":"Trial","block":"Ponzo","correct_response":"arrowdown","trial_type":"image-keyboard-response","trial_index":201,"time_elapsed":373171,"internal_node_id":"0.0-6.0-2.0-1.22","screen_height":764,"screen_width":1601,"browser":"chrome","browser_version":"103.0.0","mobile":false,"os":"Windows 10","vsync_rate":59.88,"participant_id":"MAX_01","prestimulus_duration":462,"correct":false,"type":"Ponzo","illusion_strength":12,"illusion_difference":-0.06,"block_number":3,"trial_number":23},{"rt":null,"stimulus":"<div style=\"font-size:60px;\">+</div>","response":null,"screen":"fixation","trial_type":"html-keyboard-response","trial_index":202,"time_elapsed":374116,"internal_node_id":"0.0-6.0-2.0-0.23","screen_height":764,"screen_width":1601,"browser":"chrome","browser_version":"103