[{"success":true,"trial_type":"fullscreen","trial_index":0,"time_elapsed":50669,"internal_node_id":"0.0-0.0","screen_height":641,"screen_width":1283,"browser":"chrome","browser_version":"103.0.0","mobile":false,"os":"Windows 10","vsync_rate":60.02,"participant_id":"SK_1"},{"width":1283,"height":641,"webaudio":true,"browser":"chrome","browser_version":"103.0.0","mobile":false,"os":"Windows 10","fullscreen":true,"vsync_rate":60.02,"webcam":true,"microphone":true,"screen":"browser_info","trial_type":"browser-check","trial_index":1,"time_elapsed":51685,"internal_node_id":"0.0-1.0","screen_height":641,"screen_width":1283,"participant_id":"SK_1"},{"rt":12362,"response":{"Participant_ID":"SK_1"},"screen":"participant_info","version":"1.0","date":"12/07/2022","time":"13:10:06","trial_type":"survey-text","trial_index":2,"time_elapsed":64053,"internal_node_id":"0.0-2.0","screen_height":641,"screen_width":1283,"browser":"chrome","browser_version":"103.0.0","mobile":false,"os":"Windows 10","vsync_rate":60.02,"participant_id":"SK_1"},{"rt":46549,"stimulus":"<p><b>The Illusion Game</b></p><p>In this reaction-time game, you will need to be <b>as fast as possible</b> and make correct responses by resisting different visual illusions.</p><p>We will show you examples of each illusion before each block.</p><p>Remember, your goal is to be as <b>fast</b> and <b>accurate</b> as possible. Good luck!</p>","response":0,"screen":"general_instructions","trial_type":"html-button-response","trial_index":3,"time_elapsed":110605,"internal_node_id":"0.0-3.0","screen_height":641,"screen_width":1283,"browser":"chrome","browser_version":"103.0.0","mobile":false,"os":"Windows 10","vsync_rate":60.02,"participant_id":"SK_1"},{"success":true,"timeout":false,"failed_images":[],"failed_audio":[],"failed_video":[],"trial_type":"preload","trial_index":4,"time_elapsed":110607,"internal_node_id":"0.0-4.0-0.0","screen_height":641,"screen_width":1283,"browser":"chrome","browser_version":"103.0.0","mobile":false,"os":"Windows 10","vsync_rate":60.02,"participant_id":"SK_1"},{"rt":33564,"stimulus":"<p><b>Part 1</b></p><p>In this part, two horizontal red lines will appear one above the other.</p><p>Your task is to select which <b>line is longer</b> in size as fast as you can, without making errors.</p><p>Don't get distracted by the surrounding black lines!</p><p>Press <b>the UP or the DOWN arrow</b> to indicate where is the longest <b>red line.</b></p><div style='float: center'><img src='utils/stimuli_demo/Ponzo_Demo.png' height='300'></img><p><img src='utils/answer/answer_updown_keyboard.PNG' height='150'></img></p><p class='small'>In this example, the correct answer is the <b>UP arrow</b>.</p></div><p>Are you ready? <b>Press ENTER to start</b></p>","response":"enter","trial_type":"html-keyboard-response","trial_index":5,"time_elapsed":144172,"internal_node_id":"0.0-4.0-1.0","screen_height":641,"screen_width":1283,"browser":"chrome","browser_version":"103.0.0","mobile":false,"os":"Windows 10","vsync_rate":60.02,"participant_id":"SK_1"},{"rt":null,"stimulus":"<div style=\"font-size:60px;\">+</div>","response":null,"screen":"fixation","trial_type":"html-keyboard-response","trial_index":6,"time_elapsed":145138,"internal_node_id":"0.0-4.0-2.0-0.0","screen_height":641,"screen_width":1283,"browser":"chrome","browser_version":"103.0.0","mobile":false,"os":"Windows 10","vsync_rate":60.02,"participant_id":"SK_1","trial_duration":438},{"rt":1310,"stimulus":"stimuli/Ponzo_str-4.0_diff-0.18.png","response":"arrowup","screen":"Trial","block":"Ponzo","correct_response":"arrowdown","trial_type":"image-keyboard-response","trial_index":7,"time_elapsed":146451,"internal_node_id":"0.0-4.0-2.0-1.0","screen_height":641,"screen_width":1283,"browser":"chrome","browser_version":"103.0.0","mobile":false,"os":"Windows 10","vsync_rate":60.02,"participant_id":"SK_1","prestimulus_duration":966,"correct":false,"type":"Ponzo","illusion_strength":-4,"illusion_difference":-0.18,"block_number":1,"trial_number":1},{"rt":null,"stimulus":"<div style=\"font-size:60px;\">+</div>","response":null,"screen":"fixation","trial_type":"html-keyboard-response","trial_index":8,"time_elapsed":146856,"internal_node_id":"0.0-4.0-2.0-0.1","screen_height":641,"screen_width":1283,"browser":"chrome","browser_version":"103.0.0","mobile":false,"os":"Windows 10","vsync_rate":60.02,"participant_id":"SK_1","trial_duration":390},{"rt":2241,"stimulus":"stimuli/Ponzo_str20.0_diff0.06.png","response":"arrowdown","screen":"Trial","block":"Ponzo","correct_response":"arrowup","trial_type":"image-keyboard-response","trial_index":9,"time_elapsed":149098,"internal_node_id":"0.0-4.0-2.0-1.1","screen_height":641,"screen_width":1283,"browser":"chrome","browser_version":"103.0.0","mobile":false,"os":"Windows 10","vsync_rate":60.02,"participant_id":"SK_1","prestimulus_duration":405,"correct":false,"type":"Ponzo","illusion_strength":20,"illusion_difference":0.06,"block_number":1,"trial_number":2},{"rt":null,"stimulus":"<div style=\"font-size:60px;\">+</div>","response":null,"screen":"fixation","trial_type":"html-keyboard-response","trial_index":10,"time_elapsed":149666,"internal_node_id":"0.0-4.0-2.0-0.2","screen_height":641,"screen_width":1283,"browser":"chrome","browser_version":"103.0.0","mobile":false,"os":"Windows 10","vsync_rate":60.02,"participant_id":"SK_1","trial_duration":553},{"rt":1910,"stimulus":"stimuli/Ponzo_str-20.0_diff-0.06.png","response":"arrowup","screen":"Trial","block":"Ponzo","correct_response":"arrowdown","trial_type":"image-keyboard-response","trial_index":11,"time_elapsed":151577,"internal_node_id":"0.0-4.0-2.0-1.2","screen_height":641,"screen_width":1283,"browser":"chrome","browser_version":"103.0.0","mobile":false,"os":"Windows 10","vsync_rate":60.02,"participant_id":"SK_1","prestimulus_duration":568,"correct":false,"type":"Ponzo","illusion_strength":-20,"illusion_difference":-0.06,"block_number":1,"trial_number":3},{"rt":null,"stimulus":"<div style=\"font-size:60px;\">+</div>","response":null,"screen":"fixation","trial_type":"html-keyboard-response","trial_index":12,"time_elapsed":152227,"internal_node_id":"0.0-4.0-2.0-0.3","screen_height":641,"screen_width":1283,"browser":"chrome","browser_version":"103.0.0","mobile":false,"os":"Windows 10","vsync_rate":60.02,"participant_id":"SK_1","trial_duration":638},{"rt":1768,"stimulus":"stimuli/Ponzo_str20.0_diff0.3.png","response":"arrowup","screen":"Trial","block":"Ponzo","correct_response":"arrowup","trial_type":"image-keyboard-response","trial_index":13,"time_elapsed":153996,"internal_node_id":"0.0-4.0-2.0-1.3","screen_height":641,"screen_width":1283,"browser":"chrome","browser_version":"103.0.0","mobile":false,"os":"Windows 10","vsync_rate":60.02,"participant_id":"SK_1","prestimulus_duration":650,"correct":true,"type":"Ponzo","illusion_strength":20,"illusion_difference":0.3,"block_number":1,"trial_number":4},{"rt":null,"stimulus":"<div style=\"font-size:60px;\">+</div>","response":null,"screen":"fixation","trial_type":"html-keyboard-response","trial_index":14,"time_elapsed":154880,"internal_node_id":"0.0-4.0-2.0-0.4","screen_height":641,"screen_width":1283,"browser":"chrome","browser_version":"103.0.0","mobile":false,"os":"Windows 10","vsync_rate":60.02,"participant_id":"SK_1","trial_duration":876},{"rt":1108,"stimulus":"stimuli/Ponzo_str12.0_diff-0.3.png","response":"arrowdown","screen":"Trial","block":"Ponzo","correct_response":"arrowdown","trial_type":"image-keyboard-response","trial_index":15,"time_elapsed":155989,"internal_node_id":"0.0-4.0-2.0-1.4","screen_height":641,"screen_width":1283,"browser":"chrome","browser_version":"103.0.0","mobile":false,"os":"Windows 10","vsync_rate":60.02,"participant_id":"SK_1","prestimulus_duration":884,"correct":true,"type":"Ponzo","illusion_strength":12,"illusion_difference":-0.3,"block_number":1,"trial_number":5},{"rt":null,"stimulus":"<div style=\"font-size:60px;\">+</div>","response":null,"screen":"fixation","trial_type":"html-keyboard-response","trial_index":16,"time_elapsed":156256,"internal_node_id":"0.0-4.0-2.0-0.5","screen_height":641,"screen_width":1283,"browser":"chrome","browser_version":"103.0.0","mobile":false,"os":"Windows 10","vsync_rate":60.02,"participant_id":"SK_1","trial_duration":255},{"rt":1983,"stimulus":"stimuli/Ponzo_str-20.0_diff-0.18.png","response":"arrowdown","screen":"Trial","block":"Ponzo","correct_response":"arrowdown","trial_type":"image-keyboard-response","trial_index":17,"time_elapsed":158240,"internal_node_id":"0.0-4.0-2.0-1.5","screen_height":641,"screen_width":1283,"browser":"chrome","browser_version":"103.0.0","mobile":false,"os":"Windows 10","vsync_rate":60.02,"participant_id":"SK_1","prestimulus_duration":267,"correct":true,"type":"Ponzo","illusion_strength":-20,"illusion_difference":-0.18,"block_number":1,"trial_number":6},{"rt":null,"stimulus":"<div style=\"font-size:60px;\">+</div>","response":null,"screen":"fixation","trial_type":"html-keyboard-response","trial_index":18,"time_elapsed":158662,"internal_node_id":"0.0-4.0-2.0-0.6","screen_height":641,"screen_width":1283,"browser":"chrome","browser_version":"103.0.0","mobile":false,"os":"Windows 10","vsync_rate":60.02,"participant_id":"SK_1","trial_duration":418},{"rt":1994,"stimulus":"stimuli/Ponzo_str20.0_diff-0.06.png","response":"arrowup","screen":"Trial","block":"Ponzo","correct_response":"arrowdown","trial_type":"image-keyboard-response","trial_index":19,"time_elapsed":160657,"internal_node_id":"0.0-4.0-2.0-1.6","screen_height":641,"screen_width":1283,"browser":"chrome","browser_version":"103.0.0","mobile":false,"os":"Windows 10","vsync_rate":60.02,"participant_id":"SK_1","prestimulus_duration":422,"correct":false,"type":"Ponzo","illusion_strength":20,"illusion_difference":-0.06,"block_number":1,"trial_number":7},{"rt":null,"stimulus":"<div style=\"font-size:60px;\">+</div>","response":null,"screen":"fixation","trial_type":"html-keyboard-response","trial_index":20,"time_elapsed":160988,"internal_node_id":"0.0-4.0-2.0-0.7","screen_height":641,"screen_width":1283,"browser":"chrome","browser_version":"103.0.0","mobile":false,"os":"Windows 10","vsync_rate":60.02,"participant_id":"SK_1","trial_duration":327},{"rt":1369,"stimulus":"stimuli/Ponzo_str-20.0_diff-0.3.png","response":"arrowdown","screen":"Trial","block":"Ponzo","correct_response":"arrowdown","trial_type":"image-keyboard-response","trial_index":21,"time_elapsed":162358,"internal_node_id":"0.0-4.0-2.0-1.7","screen_height":641,"screen_width":1283,"browser":"chrome","browser_version":"103.0.0","mobile":false,"os":"Windows 10","vsync_rate":60.02,"participant_id":"SK_1","prestimulus_duration":331,"correct":true,"type":"Ponzo","illusion_strength":-20,"illusion_difference":-0.3,"block_number":1,"trial_number":8},{"rt":null,"stimulus":"<div style=\"font-size:60px;\">+</div>","response":null,"screen":"fixation","trial_type":"html-keyboard-response","trial_index":22,"time_elapsed":163286,"internal_node_id":"0.0-4.0-2.0-0.8","screen_height":641,"screen_width":1283,"browser":"chrome","browser_version":"103.0.0","mobile":false,"os":"Windows 10","vsync_rate":60.02,"participant_id":"SK_1","trial_duration":913},{"rt":1149,"stimulus":"stimuli/Ponzo_str4.0_diff0.3.png","response":"arrowup","screen":"Trial","block":"Ponzo","correct_response":"arrowup","trial_type":"image-keyboard-response","trial_index":23,"time_elapsed":164435,"internal_node_id":"0.0-4.0-2.0-1.8","screen_height":641,"screen_width":1283,"browser":"chrome","browser_version":"103.0.0","mobile":false,"os":"Windows 10","vsync_rate":60.02,"participant_id":"SK_1","prestimulus_duration":928,"correct":true,"type":"Ponzo","illusion_strength":4,"illusion_difference":0.3,"block_number":1,"trial_number":9},{"rt":null,"stimulus":"<div style=\"font-size:60px;\">+</div>","response":null,"screen":"fixation","trial_type":"html-keyboard-response","trial_index":24,"time_elapsed":164764,"internal_node_id":"0.0-4.0-2.0-0.9","screen_height":641,"screen_width":1283,"browser":"chrome","browser_version":"103.0.0","mobile":false,"os":"Windows 10","vsync_rate":60.02,"participant_id":"SK_1","trial_duration":324},{"rt":1861,"stimulus":"stimuli/Ponzo_str20.0_diff0.18.png","response":"arrowup","screen":"Trial","block":"Ponzo","correct_response":"arrowup","trial_type":"image-keyboard-response","trial_index":25,"time_elapsed":166627,"internal_node_id":"0.0-4.0-2.0-1.9","screen_height":641,"screen_width":1283,"browser":"chrome","browser_version":"103.0.0","mobile":false,"os":"Windows 10","vsync_rate":60.02,"participant_id":"SK_1","prestimulus_duration":329,"correct":true,"type":"Ponzo","illusion_strength":20,"illusion_difference":0.18,"block_number":1,"trial_number":10},{"rt":null,"stimulus":"<div style=\"font-size:60px;\">+</div>","response":null,"screen":"fixation","trial_type":"html-keyboard-response","trial_index":26,"time_elapsed":167001,"internal_node_id":"0.0-4.0-2.0-0.10","screen_height":641,"screen_width":1283,"browser":"chrome","browser_version":"103.0.0","mobile":false,"os":"Windows 10","vsync_rate":60.02,"participant_id":"SK_1","trial_duration":362},{"rt":1026,"stimulus":"stimuli/Ponzo_str-12.0_diff-0.18.png","response":"arrowdown","screen":"Trial","block":"Ponzo","correct_response":"arrowdown","trial_type":"image-keyboard-response","trial_index":27,"time_elapsed":168028,"internal_node_id":"0.0-4.0-2.0-1.10","screen_height":641,"screen_width":1283,"browser":"chrome","browser_version":"103.0.0","mobile":false,"os":"Windows 10","vsync_rate":60.02,"participant_id":"SK_1","prestimulus_duration":374,"correct":true,"type":"Ponzo","illusion_strength":-12,"illusion_difference":-0.18,"block_number":1,"trial_number":11},{"rt":null,"stimulus":"<div style=\"font-size:60px;\">+</div>","response":null,"screen":"fixation","trial_type":"html-keyboard-response","trial_index":28,"time_elapsed":168498,"internal_node_id":"0.0-4.0-2.0-0.11","screen_height":641,"screen_width":1283,"browser":"chrome","browser_version":"103.0.0","mobile":false,"os":"Windows 10","vsync_rate":60.02,"participant_id":"SK_1","trial_duration":465},{"rt":1214,"stimulus":"stimuli/Ponzo_str20.0_diff-0.3.png","response":"arrowdown","screen":"Trial","block":"Ponzo","correct_response":"arrowdown","trial_type":"image-keyboard-response","trial_index":29,"time_elapsed":169713,"internal_node_id":"0.0-4.0-2.0-1.11","screen_height":641,"screen_width":1283,"browser":"chrome","browser_version":"103.0.0","mobile":false,"os":"Windows 10","vsync_rate":60.02,"participant_id":"SK_1","prestimulus_duration":470,"correct":true,"type":"Ponzo","illusion_strength":20,"illusion_difference":-0.3,"block_number":1,"trial_number":12},{"rt":null,"stimulus":"<div style=\"font-size:60px;\">+</div>","response":null,"screen":"fixation","trial_type":"html-keyboard-response","trial_index":30,"time_elapsed":170220,"internal_node_id":"0.0-4.0-2.0-0.12","screen_height":641,"screen_width":1283,"browser":"chrome","browser_version":"103.0.0","mobile":false,"os":"Windows 10","vsync_rate":60.02,"participant_id":"SK_1","trial_duration":500},{"rt":872,"stimulus":"stimuli/Ponzo_str-12.0_diff0.18.png","response":"arrowup","screen":"Trial","block":"Ponzo","correct_response":"arrowup","trial_type":"image-keyboard-response","trial_index":31,"time_elapsed":171094,"internal_node_id":"0.0-4.0-2.0-1.12","screen_height":641,"screen_width":1283,"browser":"chrome","browser_version":"103.0.0","mobile":false,"os":"Windows 10","vsync_rate":60.02,"participant_id":"SK_1","prestimulus_duration":507,"correct":true,"type":"Ponzo","illusion_strength":-12,"illusion_difference":0.18,"block_number":1,"trial_number":13},{"rt":null,"stimulus":"<div style=\"font-size:60px;\">+</div>","response":null,"screen":"fixation","trial_type":"html-keyboard-response","trial_index":32,"time_elapsed":171666,"internal_node_id":"0.0-4.0-2.0-0.13","screen_height":641,"screen_width":1283,"browser":"chrome","browser_version":"103.0.0","mobile":false,"os":"Windows 10","vsync_rate":60.02,"participant_id":"SK_1","trial_duration":559},{"rt":1046,"stimulus":"stimuli/Ponzo_str-4.0_diff0.3.png","response":"arrowup","screen":"Trial","block":"Ponzo","correct_response":"arrowup","trial_type":"image-keyboard-response","trial_index":33,"time_elapsed":172713,"internal_node_id":"0.0-4.0-2.0-1.13","screen_height":641,"screen_width":1283,"browser":"chrome","browser_version":"103.0.0","mobile":false,"os":"Windows 10","vsync_rate":60.02,"participant_id":"SK_1","prestimulus_duration":572,"correct":true,"type":"Ponzo","illusion_strength":-4,"illusion_difference":0.3,"block_number":1,"trial_number":14},{"rt":null,"stimulus":"<div style=\"font-size:60px;\">+</div>","response":null,"screen":"fixation","trial_type":"html-keyboard-response","trial_index":34,"time_elapsed":173516,"internal_node_id":"0.0-4.0-2.0-0.14","screen_height":641,"screen_width":1283,"browser":"chrome","browser_version":"103.0.0","mobile":false,"os":"Windows 10","vsync_rate":60.02,"participant_id":"SK_1","trial_duration":800},{"rt":891,"stimulus":"stimuli/Ponzo_str-12.0_diff-0.06.png","response":"arrowdown","screen":"Trial","block":"Ponzo","correct_response":"arrowdown","trial_type":"image-keyboard-response","trial_index":35,"time_elapsed":174408,"internal_node_id":"0.0-4.0-2.0-1.14","screen_height":641,"screen_width":1283,"browser":"chrome","browser_version":"103.0.0","mobile":false,"os":"Windows 10","vsync_rate":60.02,"participant_id":"SK_1","prestimulus_duration":803,"correct":true,"type":"Ponzo","illusion_strength":-12,"illusion_difference":-0.06,"block_number":1,"trial_number":15},{"rt":null,"stimulus":"<div style=\"font-size:60px;\">+</div>","response":null,"screen":"fixation","trial_type":"html-keyboard-response","trial_index":36,"time_elapsed":174764,"internal_node_id":"0.0-4.0-2.0-0.15","screen_height":641,"screen_width":1283,"browser":"chrome","browser_version":"103.0.0","mobile":false,"os":"Windows 10","vsync_rate":60.02,"participant_id":"SK_1","trial_duration":343},{"rt":1904,"stimulus":"stimuli/Ponzo_str-4.0_diff0.18.png","response":"arrowup","screen":"Trial","block":"Ponzo","correct_response":"arrowup","trial_type":"image-keyboard-response","trial_index":37,"time_elapsed":176669,"internal_node_id":"0.0-4.0-2.0-1.15","screen_height":641,"screen_width":1283,"browser":"chrome","browser_version":"103.0.0","mobile":false,"os":"Windows 10","vsync_rate":60.02,"participant_id":"SK_1","prestimulus_duration":356,"correct":true,"type":"Ponzo","illusion_strength":-4,"illusion_difference":0.18,"block_number":1,"trial_number":16},{"rt":null,"stimulus":"<div style=\"font-size:60px;\">+</div>","response":null,"screen":"fixation","trial_type":"html-keyboard-response","trial_index":38,"time_elapsed":177651,"internal_node_id":"0.0-4.0-2.0-0.16","screen_height":641,"screen_width":1283,"browser":"chrome","browser_version":"103.0.0","mobile":false,"os":"Windows 10","vsync_rate":60.02,"participant_id":"SK_1","trial_duration":973},{"rt":1436,"stimulus":"stimuli/Ponzo_str-20.0_diff0.18.png","response":"arrowup","screen":"Trial","block":"Ponzo","correct_response":"arrowup","trial_type":"image-keyboard-response","trial_index":39,"time_elapsed":179087,"internal_node_id":"0.0-4.0-2.0-1.16","screen_height":641,"screen_width":1283,"browser":"chrome","browser_version":"103.0.0","mobile":false,"os":"Windows 10","vsync_rate":60.02,"participant_id":"SK_1","prestimulus_duration":982,"correct":true,"type":"Ponzo","illusion_strength":-20,"illusion_difference":0.18,"block_number":1,"trial_number":17},{"rt":null,"stimulus":"<div style=\"font-size:60px;\">+</div>","response":null,"screen":"fixation","trial_type":"html-keyboard-response","trial_index":40,"time_elapsed":180038,"internal_node_id":"0.0-4.0-2.0-0.17","screen_height":641,"screen_width":1283,"browser":"chrome","browser_version":"103.0.0","mobile":false,"os":"Windows 10","vsync_rate":60.02,"participant_id":"SK_1","trial_duration":939},{"rt":972,"stimulus":"stimuli/Ponzo_str-4.0_diff-0.06.png","response":"arrowdown","screen":"Trial","block":"Ponzo","correct_response":"arrowdown","trial_type":"image-keyboard-response","trial_index":41,"time_elapsed":181010,"internal_node_id":"0.0-4.0-2.0-1.17","screen_height":641,"screen_width":1283,"browser":"chrome","browser_version":"103.0.0","mobile":false,"os":"Windows 10","vsync_rate":60.02,"participant_id":"SK_1","prestimulus_duration":951,"correct":true,"type":"Ponzo","illusion_strength":-4,"illusion_difference":-0.06,"block_number":1,"trial_number":18},{"rt":null,"stimulus":"<div style=\"font-size:60px;\">+</div>","response":null,"screen":"fixation","trial_type":"html-keyboard-response","trial_index":42,"time_elapsed":181997,"internal_node_id":"0.0-4.0-2.0-0.18","screen_height":641,"screen_width":1283,"browser":"chrome","browser_version":"103.0.0","mobile":false,"os":"Windows 10","vsync_rate":60.02,"participant_id":"SK_1","trial_duration":977},{"rt":1461,"stimulus":"stimuli/Ponzo_str-12.0_diff0.06.png","response":"arrowup","screen":"Trial","block":"Ponzo","correct_response":"arrowup","trial_type":"image-keyboard-response","trial_index":43,"time_elapsed":183458,"internal_node_id":"0.0-4.0-2.0-1.18","screen_height":641,"screen_width":1283,"browser":"chrome","browser_version":"103.0.0","mobile":false,"os":"Windows 10","vsync_rate":60.02,"participant_id":"SK_1","prestimulus_duration":987,"correct":true,"type":"Ponzo","illusion_strength":-12,"illusion_difference":0.06,"block_number":1,"trial_number":19},{"rt":null,"stimulus":"<div style=\"font-size:60px;\">+</div>","response":null,"screen":"fixation","trial_type":"html-keyboard-response","trial_index":44,"time_elapsed":184051,"internal_node_id":"0.0-4.0-2.0-0.19","screen_height":641,"screen_width":1283,"browser":"chrome","browser_version":"103.0.0","mobile":false,"os":"Windows 10","vsync_rate":60.02,"participant_id":"SK_1","trial_duration":579},{"rt":1066,"stimulus":"stimuli/Ponzo_str12.0_diff-0.06.png","response":"arrowdown","screen":"Trial","block":"Ponzo","correct_response":"arrowdown","trial_type":"image-keyboard-response","trial_index":45,"time_elapsed":185118,"internal_node_id":"0.0-4.0-2.0-1.19","screen_height":641,"screen_width":1283,"browser":"chrome","browser_version":"103.0.0","mobile":false,"os":"Windows 10","vsync_rate":60.02,"participant_id":"SK_1","prestimulus_duration":593,"correct":true,"type":"Ponzo","illusion_strength":12,"illusion_difference":-0.06,"block_number":1,"trial_number":20},{"rt":null,"stimulus":"<div style=\"font-size:60px;\">+</div>","response":null,"screen":"fixation","trial_type":"html-keyboard-response","trial_index":46,"time_elapsed":185701,"internal_node_id":"0.0-4.0-2.0-0.20","screen_height":641,"screen_width":1283,"browser":"chrome","browser_version":"103.0.0","mobile":false,"os":"Windows 10","vsync_rate":60.02,"participant_id":"SK_1","trial_duration":568},{"rt":1106,"stimulus":"stimuli/Ponzo_str12.0_diff0.18.png","response":"arrowup","screen":"Trial","block":"Ponzo","correct_response":"arrowup","trial_type":"image-keyboard-response","trial_index":47,"time_elapsed":186808,"internal_node_id":"0.0-4.0-2.0-1.20","screen_height":641,"screen_width":1283,"browser":"chrome","browser_version":"103.0.0","mobile":false,"os":"Windows 10","vsync_rate":60.02,"participant_id":"SK_1","prestimulus_duration":583,"correct":true,"type":"Ponzo","illusion_strength":12,"illusion_difference":0.18,"block_number":1,"trial_number":21},{"rt":null,"stimulus":"<div style=\"font-size:60px;\">+</div>","response":null,"screen":"fixation","trial_type":"html-keyboard-response","trial_index":48,"time_elapsed":187445,"internal_node_id":"0.0-4.0-2.0-0.21","screen_height":641,"screen_width":1283,"browser":"chrome","browser_version":"103.0.0","mobile":false,"os":"Windows 10","vsync_rate":60.02,"participant_id":"SK_1","trial_duration":626},{"rt":1640,"stimulus":"stimuli/Ponzo_str20.0_diff-0.18.png","response":"arrowdown","screen":"Trial","block":"Ponzo","correct_response":"arrowdown","trial_type":"image-keyboard-response","trial_index":49,"time_elapsed":189086,"internal_node_id":"0.0-4.0-2.0-1.21","screen_height":641,"screen_width":1283,"browser":"chrome","browser_version":"103.0.0","mobile":false,"os":"Windows 10","vsync_rate":60.02,"participant_id":"SK_1","prestimulus_duration":637,"correct":true,"type":"Ponzo","illusion_strength":20,"illusion_difference":-0.18,"block_number":1,"trial_number":22},{"rt":null,"stimulus":"<div style=\"font-size:60px;\">+</div>","response":null,"screen":"fixation","trial_type":"html-keyboard-response","trial_index":50,"time_elapsed":189613,"internal_node_id":"0.0-4.0-2.0-0.22","screen_height":641,"screen_width":1283,"browser":"chrome","browser_version":"103.0.0","mobile":false,"os":"Windows 10","vsync_rate":60.02,"participant_id":"SK_1","trial_duration":524},{"rt":1040,"stimulus":"stimuli/Ponzo_str-12.0_diff-0.3.png","response":"arrowdown","screen":"Trial","block":"Ponzo","correct_response":"arrowdown","trial_type":"image-keyboard-response","trial_index":51,"time_elapsed":190655,"internal_node_id":"0.0-4.0-2.0-1.22","screen_height":641,"screen_width":1283,"browser":"chrome","browser_version":"103.0.0","mobile":false,"os":"Windows 10","vsync_rate":60.02,"participant_id":"SK_1","prestimulus_duration":527,"correct":true,"type":"Ponzo","illusion_strength":-12,"illusion_difference":-0.3,"block_number":1,"trial_number":23},{"rt":null,"stimulus":"<div style=\"font-size:60px;\">+</div>","response":null,"screen":"fixation","trial_type":"html-keyboard-response","trial_index":52,"time_elapsed":191052,"internal_node_id":"0.0-4.0-2.0-0.23","screen_height":641,"screen_width":1283,"browser":"chrome","browser_version":"103.0.0","mobile":false,"os":"Windows 10","vsync_rate":60.02,"participant_id":"SK_1","trial_duration":387},{"rt":907,"stimulus":"stimuli/Ponzo_str12.0_diff0.3.png","response":"arrowup","screen":"Trial","block":"Ponzo","correct_response":"arrowup","trial_type":"image-keyboard-response","trial_index":53,"time_elapsed":191959,"internal_node_id":"0.0-4.0-2.0-1.23","screen_height":641,"screen_width":1283,"browser":"chrome","browser_version":"103.0.0","mobile":false,"os":"Windows 10","vsync_rate":60.02,"participant_id":"SK_1","prestimulus_duration":397,"correct":true,"type":"Ponzo","illusion_strength":12,"illusion_difference":0.3,"block_number":1,"trial_number":24},{"rt":null,"stimulus":"<div style=\"font-size:60px;\">+</div>","response":null,"screen":"fixation","trial_type":"html-keyboard-response","trial_index":54,"time_elapsed":192488,"internal_node_id":"0.0-4.0-2.0-0.24","screen_height":641,"screen_width":1283,"browser":"chrome","browser_version":"103.0.0","mobile":false,"os":"Windows 10","vsync_rate":60.02,"participant_id":"SK_1","trial_duration":514},{"rt":2469,"stimulus":"stimuli/Ponzo_str4.0_diff-0.06.png","response":"arrowdown","screen":"Trial","block":"Ponzo","correct_response":"arrowdown","trial_type":"image-keyboard-response","trial_index":55,"time_elapsed":194959,"internal_node_id":"0.0-4.0-2.0-1.24","screen_height":641,"screen_width":1283,"browser":"chrome","browser_version":"103.0.0","mobile":false,"os":"Windows 10","vsync_rate":60.02,"participant_id":"SK_1","prestimulus_duration":529,"correct":true,"type":"Ponzo","illusion_strength":4,"illusion_difference":-0.06,"block_number":1,"trial_number":25},{"rt":null,"stimulus":"<div style=\"font-size:60px;\">+</div>","response":null,"screen":"fixation","trial_type":"html-keyboard-response","trial_index":56,"time_elapsed":195362,"internal_node_id":"0.0-4.0-2.0-0.25","screen_height":641,"screen_width":1283,"browser":"chrome","browser_version":"103.0.0","mobile":false,"os":"Windows 10","vsync_rate":60.02,"participant_id":"SK_1","trial_duration":402},{"rt":1062,"stimulus":"stimuli/Ponzo_str12.0_diff-0.18.png","response":"arrowdown","screen":"Trial","block":"Ponzo","correct_response":"arrowdown","trial_type":"image-keyboard-response","trial_index":57,"time_elapsed":196425,"internal_node_id":"0.0-4.0-2.0-1.25","screen_height":641,"screen_width":1283,"browser":"chrome","browser_version":"103.0.0","mobile":false,"os":"Windows 10","vsync_rate":60.02,"participant_id":"SK_1","prestimulus_duration":403,"correct":true,"type":"Ponzo","illusion_strength":12,"illusion_difference":-0.18,"block_number":1,"trial_number":26},{"rt":null,"stimulus":"<div style=\"font-size:60px;\">+</div>","response":null,"screen":"fixation","trial_type":"html-keyboard-response","trial_index":58,"time_elapsed":197053,"internal_node_id":"0.0-4.0-2.0-0.26","screen_height":641,"screen_width":1283,"browser":"chrome","browser_version":"103.0.0","mobile":false,"os":"Windows 10","vsync_rate":60.02,"participant_id":"SK_1","trial_duration":618},{"rt":1637,"stimulus":"stimuli/Ponzo_str4.0_diff-0.18.png","response":"arrowdown","screen":"Trial","block":"Ponzo","correct_response":"arrowdown","trial_type":"image-keyboard-response","trial_index":59,"time_elapsed":198691,"internal_node_id":"0.0-4.0-2.0-1.26","screen_height":641,"screen_width":1283,"browser":"chrome","browser_version":"103.0.0","mobile":false,"os":"Windows 10","vsync_rate":60.02,"participant_id":"SK_1","prestimulus_duration":628,"correct":true,"type":"Ponzo","illusion_strength":4,"illusion_difference":-0.18,"block_number":1,"trial_number":27},{"rt":null,"stimulus":"<div style=\"font-size:60px;\">+</div>","response":null,"screen":"fixation","trial_type":"html-keyboard-response","trial_index":60,"time_elapsed":199578,"internal_node_id":"0.0-4.0-2.0-0.27","screen_height":641,"screen_width":1283,"browser":"chrome","browser_version":"103.0.0","mobile":false,"os":"Windows 10","vsync_rate":60.02,"participant_id":"SK_1","trial_duration":884},{"rt":928,"stimulus":"stimuli/Ponzo_str-20.0_diff0.3.png","response":"arrowup","screen":"Trial","block":"Ponzo","correct_response":"arrowup","trial_type":"image-keyboard-response","trial_index":61,"time_elapsed":200506,"internal_node_id":"0.0-4.0-2.0-1.27","screen_height":641,"screen_width":1283,"browser":"chrome","browser_version":"103.0.0","mobile":false,"os":"Windows 10","vsync_rate":60.02,"participant_id":"SK_1","prestimulus_duration":887,"correct":true,"type":"Ponzo","illusion_strength":-20,"illusion_difference":0.3,"block_number":1,"trial_number":28},{"rt":null,"stimulus":"<div style=\"font-size:60px;\">+</div>","response":null,"screen":"fixation","trial_type":"html-keyboard-response","trial_index":62,"time_elapsed":200972,"internal_node_id":"0.0-4.0-2.0-0.28","screen_height":641,"screen_width":1283,"browser":"chrome","browser_version":"103.0.0","mobile":false,"os":"Windows 10","vsync_rate":60.02,"participant_id":"SK_1","trial_duration":460},{"rt":969,"stimulus":"stimuli/Ponzo_str-12.0_diff0.3.png","response":"arrowup","screen":"Trial","block":"Ponzo","correct_response":"arrowup","trial_type":"image-keyboard-response","trial_index":63,"time_elapsed":201942,"internal_node_id":"0.0-4.0-2.0-1.28","screen_height":641,"screen_width":1283,"browser":"chrome","browser_version":"103.0.0","mobile":false,"os":"Windows 10","vsync_rate":60.02,"participant_id":"SK_1","prestimulus_duration":466,"correct":true,"type":"Ponzo","illusion_strength":-12,"illusion_difference":0.3,"block_number":1,"trial_number":29},{"rt":null,"stimulus":"<div style=\"font-size:60px;\">+</div>","response":null,"screen":"fixation","trial_type":"html-keyboard-response","trial_index":64,"time_elapsed":202770,"internal_node_id":"0.0-4.0-2.0-0.29","screen_height":641,"screen_width":1283,"browser":"chrome","browser_version":"103.0.0","mobile":false,"os":"Windows 10","vsync_rate":60.02,"participant_id":"SK_1","trial_duration":817},{"rt":1245,"stimulus":"stimuli/Ponzo_str4.0_diff0.06.png","response":"arrowdown","screen":"Trial","block":"Ponzo","correct_response":"arrowup","trial_type":"image-keyboard-response","trial_index":65,"time_elapsed":204016,"internal_node_id":"0.0-4.0-2.0-1.29","screen_height":641,"screen_width":1283,"browser":"chrome","browser_version":"103.0.0","mobile":false,"os":"Windows 10","vsync_rate":60.02,"participant_id":"SK_1","prestimulus_duration":828,"correct":false,"type":"Ponzo","illusion_strength":4,"illusion_difference":0.06,"block_number":1,"trial_number":30},{"rt":null,"stimulus":"<div style=\"font-size:60px;\">+</div>","response":null,"screen":"fixation","trial_type":"html-keyboard-response","trial_index":66,"time_elapsed":204995,"internal_node_id":"0.0-4.0-2.0-0.30","screen_height":641,"screen_width":1283,"browser":"chrome","browser_version":"103.0.0","mobile":false,"os":"Windows 10","vsync_rate":60.02,"participant_id":"SK_1","trial_duration":973},{"rt":1653,"stimulus":"stimuli/Ponzo_str4.0_diff0.18.png","response":"arrowup","screen":"Trial","block":"Ponzo","correct_response":"arrowup","trial_type":"image-keyboard-response","trial_index":67,"time_elapsed":206649,"internal_node_id":"0.0-4.0-2.0-1.30","screen_height":641,"screen_width":1283,"browser":"chrome","browser_version":"103.0.0","mobile":false,"os":"Windows 10","vsync_rate":60.02,"participant_id":"SK_1","prestimulus_duration":979,"correct":true,"type":"Ponzo","illusion_strength":4,"illusion_difference":0.18,"block_number":1,"trial_number":31},{"rt":null,"stimulus":"<div style=\"font-size:60px;\">+</div>","response":null,"screen":"fixation","trial_type":"html-keyboard-response","trial_index":68,"time_elapsed":207130,"internal_node_id":"0.0-4.0-2.0-0.31","screen_height":641,"screen_width":1283,"browser":"chrome","browser_version":"103.0.0","mobile":false,"os":"Windows 10","vsync_rate":60.02,"participant_id":"SK_1","trial_duration":475},{"rt":4290,"stimulus":"stimuli/Ponzo_str-4.0_diff0.06.png","response":"arrowup","screen":"Trial","block":"Ponzo","correct_response":"arrowup","trial_type":"image-keyboard-response","trial_index":69,"time_elapsed":211421,"internal_node_id":"0.0-4.0-2.0-1.31","screen_height":641,"screen_width":1283,"browser":"chrome","browser_version":"103.0.0","mobile":false,"os":"Windows 10","vsync_rate":60.02,"participant_id":"SK_1","prestimulus_duration":481,"correct":true,"type":"Ponzo","illusion_strength":-4,"illusion_difference":0.06,"block_number":1,"trial_number":32},{"rt":null,"stimulus":"<div style=\"font-size:60px;\">+</div>","response":null,"screen":"fixation","trial_type":"html-keyboard-response","trial_index":70,"time_elapsed":212028,"internal_node_id":"0.0-4.0-2.0-0.32","screen_height":641,"screen_width":1283,"browser":"chrome","browser_version":"103.0.0","mobile":false,"os":"Windows 10","vsync_rate":60.02,"participant_id":"SK_1","trial_duration":592},{"rt":981,"stimulus":"stimuli/Ponzo_str-4.0_diff-0.3.png","response":"arrowdown","screen":"Trial","block":"Ponzo","correct_response":"arrowdown","trial_type":"image-keyboard-response","trial_index":71,"time_elapsed":213010,"internal_node_id":"0.0-4.0-2.0-1.32","screen_height":641,"screen_width":1283,"browser":"chrome","browser_version":"103.0.0","mobile":false,"os":"Windows 10","vsync_rate":60.02,"participant_id":"SK_1","prestimulus_duration":607,"correct":true,"type":"Ponzo","illusion_strength":-4,"illusion_difference":-0.3,"block_number":1,"trial_number":33},{"rt":null,"stimulus":"<div style=\"font-size:60px;\">+</div>","response":null,"screen":"fixation","trial_type":"html-keyboard-response","trial_index":72,"time_elapsed":213631,"internal_node_id":"0.0-4.0-2.0-0.33","screen_height":641,"screen_width":1283,"browser":"chrome","browser_version":"103.0.0","mobile":false,"os":"Windows 10","vsync_rate":60.02,"participant_id":"SK_1","trial_duration":615},{"rt":1493,"stimulus":"stimuli/Ponzo_str12.0_diff0.06.png","response":"arrowup","screen":"Trial","block":"Ponzo","correct_response":"arrowup","trial_type":"image-keyboard-response","trial_index":73,"time_elapsed":215125,"internal_node_id":"0.0-4.0-2.0-1.33","screen_height":641,"screen_width":1283,"browser":"chrome","browser_version":"103.0.0","mobile":false,"os":"Windows 10","vsync_rate":60.02,"participant_id":"SK_1","prestimulus_duration":621,"correct":true,"type":"Ponzo","illusion_strength":12,"illusion_difference":0.06,"block_number":1,"trial_number":34},{"rt":null,"stimulus":"<div style=\"font-size:60px;\">+</div>","response":null,"screen":"fixation","trial_type":"html-keyboard-response","trial_index":74,"time_elapsed":215807,"internal_node_id":"0.0-4.0-2.0-0.34","screen_height":641,"screen_width":1283,"browser":"chrome","browser_version":"103.0.0","mobile":false,"os":"Windows 10","vsync_rate":60.02,"participant_id":"SK_1","trial_duration":674},{"rt":942,"stimulus":"stimuli/Ponzo_str-20.0_diff0.06.png","response":"arrowup","screen":"Trial","block":"Ponzo","correct_response":"arrowup","trial_type":"image-keyboard-response","trial_index":75,"time_elapsed":216750,"internal_node_id":"0.0-4.0-2.0-1.34","screen_height":641,"screen_width":1283,"browser":"chrome","browser_version":"103.0.0","mobile":false,"os":"Windows 10","vsync_rate":60.02,"participant_id":"SK_1","prestimulus_duration":682,"correct":true,"type":"Ponzo","illusion_strength":-20,"illusion_difference":0.06,"block_number":1,"trial_number":35},{"rt":null,"stimulus":"<div style=\"font-size:60px;\">+</div>","response":null,"screen":"fixation","trial_type":"html-keyboard-response","trial_index":76,"time_elapsed":217091,"internal_node_id":"0.0-4.0-2.0-0.35","screen_height":641,"screen_width":1283,"browser":"chrome","browser_version":"103.0.0","mobile":false,"os":"Windows 10","vsync_rate":60.02,"participant_id":"SK_1","trial_duration":337},{"rt":1061,"stimulus":"stimuli/Ponzo_str4.0_diff-0.3.png","response":"arrowdown","screen":"Trial","block":"Ponzo","correct_response":"arrowdown","trial_type":"image-keyboard-response","trial_index":77,"time_elapsed":218152,"internal_node_id":"0.0-4.0-2.0-1.35","screen_height":641,"screen_width":1283,"browser":"chrome","browser_version":"103.0.0","mobile":false,"os":"Windows 10","vsync_rate":60.02,"participant_id":"SK_1","prestimulus_duration":341,"correct":true,"type":"Ponzo","illusion_strength":4,"illusion_difference":-0.3,"block_number":1,"trial_number":36},{"rt":71424,"stimulus":"<p>Your score for this illusion is <p style=\"color: black; font-size: 48px; font-weight: bold;\">3378</p><hr><hr><p>Can you do better in the next illusion?</p>","response":0,"screen":"block_results","trial_type":"html-button-response","trial_index":78,"time_elapsed":289578,"internal_node_id":"0.0-4.0-3.0","screen_height":641,"screen_width":1283,"browser":"chrome","browser_version":"103.0.0","mobile":false,"os":"Windows 10","vsync_rate":60.02,"participant_id":"SK_1"},{"success":true,"timeout":false,"failed_images":[],"failed_audio":[],"failed_video":[],"trial_type":"preload","trial_index":79,"time_elapsed":289580,"internal_node_id":"0.0-5.0-0.0","screen_height":641,"screen_width":1283,"browser":"chrome","browser_version":"103.0.0","mobile":false,"os":"Windows 10","vsync_rate":60.02,"participant_id":"SK_1"},{"rt":9918,"stimulus":"<p><b>Part 2</b></p><p>In this part, two vertical grey rectangles will appear side by side.</p><p>Your task is to tell <b>which rectangle is of a lighter color</b>, as fast as you can, and without making errors.</p><p>Don't get distracted by the background color!</p><p>Press <b>the LEFT or the RIGHT arrow</b> to indicate which <b>side has the lighter rectangle.</b></p><div style='float: center'><img src='utils/stimuli_demo/White_Demo.png' height='300'></img><p><img src='utils/answer/answer_leftright_keyboard.PNG' height='150'></img></p><p class='small'>In this example, the correct answer is the <b>LEFT arrow</b>.</p></div><p>Are you ready? <b>Press ENTER to start</b></p>","response":"enter","trial_type":"html-keyboard-response","trial_index":80,"time_elapsed":299498,"internal_node_id":"0.0-5.0-1.0","screen_height":641,"screen_width":1283,"browser":"chrome","browser_version":"103.0.0","mobile":false,"os":"Windows 10","vsync_rate":60.02,"participant_id":"SK_1"},{"rt":null,"stimulus":"<div style=\"font-size:60px;\">+</div>","response":null,"screen":"fixation","trial_type":"html-keyboard-response","trial_index":81,"time_elapsed":300359,"internal_node_id":"0.0-5.0-2.0-0.0","screen_height":641,"screen_width":1283,"browser":"chrome","browser_version":"103.0.0","mobile":false,"os":"Windows 10","vsync_rate":60.02,"participant_id":"SK_1","trial_duration":354},{"rt":1062,"stimulus":"stimuli/White_str6.0_diff40.0.png","response":"arrowleft","screen":"Trial","block":"White","correct_response":"arrowleft","trial_type":"image-keyboard-response","trial_index":82,"time_elapsed":301422,"internal_node_id":"0.0-5.0-2.0-1.0","screen_height":641,"screen_width":1283,"browser":"chrome","browser_version":"103.0.0","mobile":false,"os":"Windows 10","vsync_rate":60.02,"participant_id":"SK_1","prestimulus_duration":861,"correct":true,"type":"White","illusion_strength":6,"illusion_difference":40,"block_number":2,"trial_number":1},{"rt":null,"stimulus":"<div style=\"font-size:60px;\">+</div>","response":null,"screen":"fixation","trial_type":"html-keyboard-response","trial_index":83,"time_elapsed":302387,"internal_node_id":"0.0-5.0-2.0-0.1","screen_height":641,"screen_width":1283,"browser":"chrome","browser_version":"103.0.0","mobile":false,"os":"Windows 10","vsync_rate":60.02,"participant_id":"SK_1","trial_duration":948},{"rt":818,"stimulus":"stimuli/White_str-6.0_diff40.0.png","response":"arrowleft","screen":"Trial","block":"White","correct_response":"arrowleft","trial_type":"image-keyboard-response","trial_index":84,"time_elapsed":303205,"internal_node_id":"0.0-5.0-2.0-1.1","screen_height":641,"screen_width":1283,"browser":"chrome","browser_version":"103.0.0","mobile":false,"os":"Windows 10","vsync_rate":60.02,"participant_id":"SK_1","prestimulus_duration":965,"correct":true,"type":"White","illusion_strength":-6,"illusion_difference":40,"block_number":2,"trial_number":2},{"rt":null,"stimulus":"<div style=\"font-size:60px;\">+</div>","response":null,"screen":"fixation","trial_type":"html-keyboard-response","trial_index":85,"time_elapsed":303967,"internal_node_id":"0.0-5.0-2.0-0.2","screen_height":641,"screen_width":1283,"browser":"chrome","browser_version":"103.0.0","mobile":false,"os":"Windows 10","vsync_rate":60.02,"participant_id":"SK_1","trial_duration":748},{"rt":2607,"stimulus":"stimuli/White_str6.0_diff8.0.png","response":"arrowleft","screen":"Trial","block":"White","correct_response":"arrowleft","trial_type":"image-keyboard-response","trial_index":86,"time_elapsed":306574,"internal_node_id":"0.0-5.0-2.0-1.2","screen_height":641,"screen_width":1283,"browser":"chrome","browser_version":"103.0.0","mobile":false,"os":"Windows 10","vsync_rate":60.02,"participant_id":"SK_1","prestimulus_duration":762,"correct":true,"type":"White","illusion_strength":6,"illusion_difference":8,"block_number":2,"trial_number":3},{"rt":null,"stimulus":"<div style=\"font-size:60px;\">+</div>","response":null,"screen":"fixation","trial_type":"html-keyboard-response","trial_index":87,"time_elapsed":307244,"internal_node_id":"0.0-5.0-2.0-0.3","screen_height":641,"screen_width":1283,"browser":"chrome","browser_version":"103.0.0","mobile":false,"os":"Windows 10","vsync_rate":60.02,"participant_id":"SK_1","trial_duration":658},{"rt":1056,"stimulus":"stimuli/White_str30.0_diff-24.0.png","response":"arrowright","screen":"Trial","block":"White","correct_response":"arrowright","trial_type":"image-keyboard-response","trial_index":88,"time_elapsed":308301,"internal_node_id":"0.0-5.0-2.0-1.3","screen_height":641,"screen_width":1283,"browser":"chrome","browser_version":"103.0.0","mobile":false,"os":"Windows 10","vsync_rate":60.02,"participant_id":"SK_1","prestimulus_duration":670,"correct":true,"type":"White","illusion_strength":30,"illusion_difference":-24,"block_number":2,"trial_number":4},{"rt":null,"stimulus":"<div style=\"font-size:60px;\">+</div>","response":null,"screen":"fixation","trial_type":"html-keyboard-response","trial_index":89,"time_elapsed":309128,"internal_node_id":"0.0-5.0-2.0-0.4","screen_height":641,"screen_width":1283,"browser":"chrome","browser_version":"103.0.0","mobile":false,"os":"Windows 10","vsync_rate":60.02,"participant_id":"SK_1","trial_duration":811},{"rt":917,"stimulus":"stimuli/White_str-6.0_diff-24.0.png","response":"arrowright","screen":"Trial","block":"White","correct_response":"arrowright","trial_type":"image-keyboard-response","trial_index":90,"time_elapsed":310045,"internal_node_id":"0.0-5.0-2.0-1.4","screen_height":641,"screen_width":1283,"browser":"chrome","browser_version":"103.0.0","mobile":false,"os":"Windows 10","vsync_rate":60.02,"participant_id":"SK_1","prestimulus_duration":827,"correct":true,"type":"White","illusion_strength":-6,"illusion_difference":-24,"block_number":2,"trial_number":5},{"rt":null,"stimulus":"<div style=\"font-size:60px;\">+</div>","response":null,"screen":"fixation","trial_type":"html-keyboard-response","trial_index":91,"time_elapsed":310539,"internal_node_id":"0.0-5.0-2.0-0.5","screen_height":641,"screen_width":1283,"browser":"chrome","browser_version":"103.0.0","mobile":false,"os":"Windows 10","vsync_rate":60.02,"participant_id":"SK_1","trial_duration":480},{"rt":1540,"stimulus":"stimuli/White_str6.0_diff-8.0.png","response":"arrowright","screen":"Trial","block":"White","correct_response":"arrowright","trial_type":"image-keyboard-response","trial_index":92,"time_elapsed":312079,"internal_node_id":"0.0-5.0-2.0-1.5","screen_height":641,"screen_width":1283,"browser":"chrome","browser_version":"103.0.0","mobile":false,"os":"Windows 10","vsync_rate":60.02,"participant_id":"SK_1","prestimulus_duration":494,"correct":true,"type":"White","illusion_strength":6,"illusion_difference":-8,"block_number":2,"trial_number":6},{"rt":null,"stimulus":"<div style=\"font-size:60px;\">+</div>","response":null,"screen":"fixation","trial_type":"html-keyboard-response","trial_index":93,"time_elapsed":312569,"internal_node_id":"0.0-5.0-2.0-0.6","screen_height":641,"screen_width":1283,"browser":"chrome","browser_version":"103.0.0","mobile":false,"os":"Windows 10","vsync_rate":60.02,"participant_id":"SK_1","trial_duration":480},{"rt":1530,"stimulus":"stimuli/White_str-18.0_diff24.0.png","response":"arrowleft","screen":"Trial","block":"White","correct_response":"arrowleft","trial_type":"image-keyboard-response","trial_index":94,"time_elapsed":314099,"internal_node_id":"0.0-5.0-2.0-1.6","screen_height":641,"screen_width":1283,"browser":"chrome","browser_version":"103.0.0","mobile":false,"os":"Windows 10","vsync_rate":60.02,"participant_id":"SK_1","prestimulus_duration":490,"correct":true,"type":"White","illusion_strength":-18,"illusion_difference":24,"block_number":2,"trial_number":7},{"rt":null,"stimulus":"<div style=\"font-size:60px;\">+</div>","response":null,"screen":"fixation","trial_type":"html-keyboard-response","trial_index":95,"time_elapsed":314976,"internal_node_id":"0.0-5.0-2.0-0.7","screen_height":641,"screen_width":1283,"browser":"chrome","browser_version":"103.0.0","mobile":false,"os":"Windows 10","vsync_rate":60.02,"participant_id":"SK_1","trial_duration":872},{"rt":1244,"stimulus":"stimuli/White_str-18.0_diff8.0.png","response":"arrowright","screen":"Trial","block":"White","correct_response":"arrowleft","trial_type":"image-keyboard-response","trial_index":96,"time_elapsed":316221,"internal_node_id":"0.0-5.0-2.0-1.7","screen_height":641,"screen_width":1283,"browser":"chrome","browser_version":"103.0.0","mobile":false,"os":"Windows 10","vsync_rate":60.02,"participant_id":"SK_1","prestimulus_duration":877,"correct":false,"type":"White","illusion_strength":-18,"illusion_difference":8,"block_number":2,"trial_number":8},{"rt":null,"stimulus":"<div style=\"font-size:60px;\">+</div>","response":null,"screen":"fixation","trial_type":"html-keyboard-response","trial_index":97,"time_elapsed":317001,"internal_node_id":"0.0-5.0-2.0-0.8","screen_height":641,"screen_width":1283,"browser":"chrome","browser_version":"103.0.0","mobile":false,"os":"Windows 10","vsync_rate":60.02,"participant_id":"SK_1","trial_duration":769},{"rt":2079,"stimulus":"stimuli/White_str-30.0_diff-8.0.png","response":"arrowleft","screen":"Trial","block":"White","correct_response":"arrowright","trial_type":"image-keyboard-response","trial_index":98,"time_elapsed":319081,"internal_node_id":"0.0-5.0-2.0-1.8","screen_height":641,"screen_width":1283,"browser":"chrome","browser_version":"103.0.0","mobile":false,"os":"Windows 10","vsync_rate":60.02,"participant_id":"SK_1","prestimulus_duration":780,"correct":false,"type":"White","illusion_strength":-30,"illusion_difference":-8,"block_number":2,"trial_number":9},{"rt":null,"stimulus":"<div style=\"font-size:60px;\">+</div>","response":null,"screen":"fixation","trial_type":"html-keyboard-response","trial_index":99,"time_elapsed":319923,"internal_node_id":"0.0-5.0-2.0-0.9","screen_height":641,"screen_width":1283,"browser":"chrome","browser_version":"103.0.0","mobile":false,"os":"Windows 10","vsync_rate":60.02,"participant_id":"SK_1","trial_duration":834},{"rt":1022,"stimulus":"stimuli/White_str-6.0_diff24.0.png","response":"arrowleft","screen":"Trial","block":"White","correct_response":"arrowleft","trial_type":"image-keyboard-response","trial_index":100,"time_elapsed":320946,"internal_node_id":"0.0-5.0-2.0-1.9","screen_height":641,"screen_width":1283,"browser":"chrome","browser_version":"103.0.0","mobile":false,"os":"Windows 10","vsync_rate":60.02,"participant_id":"SK_1","prestimulus_duration":842,"correct":true,"type":"White","illusion_strength":-6,"illusion_difference":24,"block_number":2,"trial_number":10},{"rt":null,"stimulus":"<div style=\"font-size:60px;\">+</div>","response":null,"screen":"fixation","trial_type":"html-keyboard-response","trial_index":101,"time_elapsed":321695,"internal_node_id":"0.0-5.0-2.0-0.10","screen_height":641,"screen_width":1283,"browser":"chrome","browser_version":"103.0.0","mobile":false,"os":"Windows 10","vsync_rate":60.02,"participant_id":"SK_1","trial_duration":743},{"rt":1057,"stimulus":"stimuli/White_str6.0_diff-40.0.png","response":"arrowright","screen":"Trial","block":"White","correct_response":"arrowright","trial_type":"image-keyboard-response","trial_index":102,"time_elapsed":322753,"internal_node_id":"0.0-5.0-2.0-1.10","screen_height":641,"screen_width":1283,"browser":"chrome","browser_version":"103.0.0","mobile":false,"os":"Windows 10","vsync_rate":60.02,"participant_id":"SK_1","prestimulus_duration":749,"correct":true,"type":"White","illusion_strength":6,"illusion_difference":-40,"block_number":2,"trial_number":11},{"rt":null,"stimulus":"<div style=\"font-size:60px;\">+</div>","response":null,"screen":"fixation","trial_type":"html-keyboard-response","trial_index":103,"time_elapsed":323059,"internal_node_id":"0.0-5.0-2.0-0.11","screen_height":641,"screen_width":1283,"browser":"chrome","browser_version":"103.0.0","mobile":false,"os":"Windows 10","vsync_rate":60.02,"participant_id":"SK_1","trial_duration":293},{"rt":1514,"stimulus":"stimuli/White_str-18.0_diff-24.0.png","response":"arrowright","screen":"Trial","block":"White","correct_response":"arrowright","trial_type":"image-keyboard-response","trial_index":104,"time_elapsed":324574,"internal_node_id":"0.0-5.0-2.0-1.11","screen_height":641,"screen_width":1283,"browser":"chrome","browser_version":"103.0.0","mobile":false,"os":"Windows 10","vsync_rate":60.02,"participant_id":"SK_1","prestimulus_duration":306,"correct":true,"type":"White","illusion_strength":-18,"illusion_difference":-24,"block_number":2,"trial_number":12},{"rt":null,"stimulus":"<div style=\"font-size:60px;\">+</div>","response":null,"screen":"fixation","trial_type":"html-keyboard-response","trial_index":105,"time_elapsed":325037,"internal_node_id":"0.0-5.0-2.0-0.12","screen_height":641,"screen_width":1283,"browser":"chrome","browser_version":"103.0.0","mobile":false,"os":"Windows 10","vsync_rate":60.02,"participant_id":"SK_1","trial_duration":452},{"rt":2779,"stimulus":"stimuli/White_str-30.0_diff-24.0.png","response":"arrowright","screen":"Trial","block":"White","correct_response":"arrowright","trial_type":"image-keyboard-response","trial_index":106,"time_elapsed":327817,"internal_node_id":"0.0-5.0-2.0-1.12","screen_height":641,"screen_width":1283,"browser":"chrome","browser_version":"103.0.0","mobile":false,"os":"Windows 10","vsync_rate":60.02,"participant_id":"SK_1","prestimulus_duration":463,"correct":true,"type":"White","illusion_strength":-30,"illusion_difference":-24,"block_number":2,"trial_number":13},{"rt":null,"stimulus":"<div style=\"font-size:60px;\">+</div>","response":null,"screen":"fixation","trial_type":"html-keyboard-response","trial_index":107,"time_elapsed":328751,"internal_node_id":"0.0-5.0-2.0-0.13","screen_height":641,"screen_width":1283,"browser":"chrome","browser_version":"103.0.0","mobile":false,"os":"Windows 10","vsync_rate":60.02,"participant_id":"SK_1","trial_duration":927},{"rt":907,"stimulus":"stimuli/White_str-6.0_diff-40.0.png","response":"arrowright","screen":"Trial","block":"White","correct_response":"arrowright","trial_type":"image-keyboard-response","trial_index":108,"time_elapsed":329659,"internal_node_id":"0.0-5.0-2.0-1.13","screen_height":641,"screen_width":1283,"browser":"chrome","browser_version":"103.0.0","mobile":false,"os":"Windows 10","vsync_rate":60.02,"participant_id":"SK_1","prestimulus_duration":934,"correct":true,"type":"White","illusion_strength":-6,"illusion_difference":-40,"block_number":2,"trial_number":14},{"rt":null,"stimulus":"<div style=\"font-size:60px;\">+</div>","response":null,"screen":"fixation","trial_type":"html-keyboard-response","trial_index":109,"time_elapsed":330194,"internal_node_id":"0.0-5.0-2.0-0.14","screen_height":641,"screen_width":1283,"browser":"chrome","browser_version":"103.0.0","mobile":false,"os":"Windows 10","vsync_rate":60.02,"participant_id":"SK_1","trial_duration":528},{"rt":3356,"stimulus":"stimuli/White_str-30.0_diff8.0.png","response":"arrowleft","screen":"Trial","block":"White","correct_response":"arrowleft","trial_type":"image-keyboard-response","trial_index":110,"time_elapsed":333551,"internal_node_id":"0.0-5.0-2.0-1.14","screen_height":641,"screen_width":1283,"browser":"chrome","browser_version":"103.0.0","mobile":false,"os":"Windows 10","vsync_rate":60.02,"participant_id":"SK_1","prestimulus_duration":535,"correct":true,"type":"White","illusion_strength":-30,"illusion_difference":8,"block_number":2,"trial_number":15},{"rt":null,"stimulus":"<div style=\"font-size:60px;\">+</div>","response":null,"screen":"fixation","trial_type":"html-keyboard-response","trial_index":111,"time_elapsed":333925,"internal_node_id":"0.0-5.0-2.0-0.15","screen_height":641,"screen_width":1283,"browser":"chrome","browser_version":"103.0.0","mobile":false,"os":"Windows 10","vsync_rate":60.02,"participant_id":"SK_1","trial_duration":359},{"rt":1797,"stimulus":"stimuli/White_str6.0_diff-24.0.png","response":"arrowright","screen":"Trial","block":"White","correct_response":"arrowright","trial_type":"image-keyboard-response","trial_index":112,"time_elapsed":335723,"internal_node_id":"0.0-5.0-2.0-1.15","screen_height":641,"screen_width":1283,"browser":"chrome","browser_version":"103.0.0","mobile":false,"os":"Windows 10","vsync_rate":60.02,"participant_id":"SK_1","prestimulus_duration":374,"correct":true,"type":"White","illusion_strength":6,"illusion_difference":-24,"block_number":2,"trial_number":16},{"rt":null,"stimulus":"<div style=\"font-size:60px;\">+</div>","response":null,"screen":"fixation","trial_type":"html-keyboard-response","trial_index":113,"time_elapsed":336604,"internal_node_id":"0.0-5.0-2.0-0.16","screen_height":641,"screen_width":1283,"browser":"chrome","browser_version":"103.0.0","mobile":false,"os":"Windows 10","vsync_rate":60.02,"participant_id":"SK_1","trial_duration":866},{"rt":1487,"stimulus":"stimuli/White_str-6.0_diff-8.0.png","response":"arrowright","screen":"Trial","block":"White","correct_response":"arrowright","trial_type":"image-keyboard-response","trial_index":114,"time_elapsed":338092,"internal_node_id":"0.0-5.0-2.0-1.16","screen_height":641,"screen_width":1283,"browser":"chrome","browser_version":"103.0.0","mobile":false,"os":"Windows 10","vsync_rate":60.02,"participant_id":"SK_1","prestimulus_duration":881,"correct":true,"type":"White","illusion_strength":-6,"illusion_difference":-8,"block_number":2,"trial_number":17},{"rt":null,"stimulus":"<div style=\"font-size:60px;\">+</div>","response":null,"screen":"fixation","trial_type":"html-keyboard-response","trial_index":115,"time_elapsed":338855,"internal_node_id":"0.0-5.0-2.0-0.17","screen_height":641,"screen_width":1283,"browser":"chrome","browser_version":"103.0.0","mobile":false,"os":"Windows 10","vsync_rate":60.02,"participant_id":"SK_1","trial_duration":758},{"rt":1219,"stimulus":"stimuli/White_str30.0_diff24.0.png","response":"arrowleft","screen":"Trial","block":"White","correct_response":"arrowleft","trial_type":"image-keyboard-response","trial_index":116,"time_elapsed":340075,"internal_node_id":"0.0-5.0-2.0-1.17","screen_height":641,"screen_width":1283,"browser":"chrome","browser_version":"103.0.0","mobile":false,"os":"Windows 10","vsync_rate":60.02,"participant_id":"SK_1","prestimulus_duration":763,"correct":true,"type":"White","illusion_strength":30,"illusion_difference":24,"block_number":2,"trial_number":18},{"rt":null,"stimulus":"<div style=\"font-size:60px;\">+</div>","response":null,"screen":"fixation","trial_type":"html-keyboard-response","trial_index":117,"time_elapsed":340803,"internal_node_id":"0.0-5.0-2.0-0.18","screen_height":641,"screen_width":1283,"browser":"chrome","browser_version":"103.0.0","mobile":false,"os":"Windows 10","vsync_rate":60.02,"participant_id":"SK_1","trial_duration":713},{"rt":882,"stimulus":"stimuli/White_str-18.0_diff40.0.png","response":"arrowleft","screen":"Trial","block":"White","correct_response":"arrowleft","trial_type":"image-keyboard-response","trial_index":118,"time_elapsed":341686,"internal_node_id":"0.0-5.0-2.0-1.18","screen_height":641,"screen_width":1283,"browser":"chrome","browser_version":"103.0.0","mobile":false,"os":"Windows 10","vsync_rate":60.02,"participant_id":"SK_1","prestimulus_duration":728,"correct":true,"type":"White","illusion_strength":-18,"illusion_difference":40,"block_number":2,"trial_number":19},{"rt":null,"stimulus":"<div style=\"font-size:60px;\">+</div>","response":null,"screen":"fixation","trial_type":"html-keyboard-response","trial_index":119,"time_elapsed":342593,"internal_node_id":"0.0-5.0-2.0-0.19","screen_height":641,"screen_width":1283,"browser":"chrome","browser_version":"103.0.0","mobile":false,"os":"Windows 10","vsync_rate":60.02,"participant_id":"SK_1","trial_duration":892},{"rt":931,"stimulus":"stimuli/White_str18.0_diff40.0.png","response":"arrowleft","screen":"Trial","block":"White","correct_response":"arrowleft","trial_type":"image-keyboard-response","trial_index":120,"time_elapsed":343525,"internal_node_id":"0.0-5.0-2.0-1.19","screen_height":641,"screen_width":1283,"browser":"chrome","browser_version":"103.0.0","mobile":false,"os":"Windows 10","vsync_rate":60.02,"participant_id":"SK_1","prestimulus_duration":907,"correct":true,"type":"White","illusion_strength":18,"illusion_difference":40,"block_number":2,"trial_number":20},{"rt":null,"stimulus":"<div style=\"font-size:60px;\">+</div>","response":null,"screen":"fixation","trial_type":"html-keyboard-response","trial_index":121,"time_elapsed":344121,"internal_node_id":"0.0-5.0-2.0-0.20","screen_height":641,"screen_width":1283,"browser":"chrome","browser_version":"103.0.0","mobile":false,"os":"Windows 10","vsync_rate":60.02,"participant_id":"SK_1","trial_duration":591},{"rt":1223,"stimulus":"stimuli/White_str30.0_diff8.0.png","response":"arrowleft","screen":"Trial","block":"White","correct_response":"arrowleft","trial_type":"image-keyboard-response","trial_index":122,"time_elapsed":345345,"internal_node_id":"0.0-5.0-2.0-1.20","screen_height":641,"screen_width":1283,"browser":"chrome","browser_version":"103.0.0","mobile":false,"os":"Windows 10","vsync_rate":60.02,"participant_id":"SK_1","prestimulus_duration":596,"correct":true,"type":"White","illusion_strength":30,"illusion_difference":8,"block_number":2,"trial_number":21},{"rt":null,"stimulus":"<div style=\"font-size:60px;\">+</div>","response":null,"screen":"fixation","trial_type":"html-keyboard-response","trial_index":123,"time_elapsed":345951,"internal_node_id":"0.0-5.0-2.0-0.21","screen_height":641,"screen_width":1283,"browser":"chrome","browser_version":"103.0.0","mobile":false,"os":"Windows 10","vsync_rate":60.02,"participant_id":"SK_1","trial_duration":594},{"rt":777,"stimulus":"stimuli/White_str-30.0_diff40.0.png","response":"arrowleft","screen":"Trial","block":"White","correct_response":"arrowleft","trial_type":"image-keyboard-response","trial_index":124,"time_elapsed":346729,"internal_node_id":"0.0-5.0-2.0-1.21","screen_height":641,"screen_width":1283,"browser":"chrome","browser_version":"103.0.0","mobile":false,"os":"Windows 10","vsync_rate":60.02,"participant_id":"SK_1","prestimulus_duration":606,"correct":true,"type":"White","illusion_strength":-30,"illusion_difference":40,"block_number":2,"trial_number":22},{"rt":null,"stimulus":"<div style=\"font-size:60px;\">+</div>","response":null,"screen":"fixation","trial_type":"html-keyboard-response","trial_index":125,"time_elapsed":347693,"internal_node_id":"0.0-5.0-2.0-0.22","screen_height":641,"screen_width":1283,"browser":"chrome","browser_version":"103.0.0","mobile":false,"os":"Windows 10","vsync_rate":60.02,"participant_id":"SK_1","trial_duration":950},{"rt":2037,"stimulus":"stimuli/White_str-18.0_diff-8.0.png","response":"arrowright","screen":"Trial","block":"White","correct_response":"arrowright","trial_type":"image-keyboard-response","trial_index":126,"time_elapsed":349731,"internal_node_id":"0.0-5.0-2.0-1.22","screen_height":641,"screen_width":1283,"browser":"chrome","browser_version":"103.0.0","mobile":false,"os":"Windows 10","vsync_rate":60.02,"participant_id":"SK_1","prestimulus_duration":964,"correct":true,"type":"White","illusion_strength":-18,"illusion_difference":-8,"block_number":2,"trial_number":23},{"rt":null,"stimulus":"<div style=\"font-size:60px;\">+</div>","response":null,"screen":"fixation","trial_type":"html-keyboard-response","trial_index":127,"time_elapsed":350628,"internal_node_id":"0.0-5.0-2.0-0.23","screen_height":641,"screen_width":1283,"browser":"chrome","browser_version":"103.0.0","mobile":false,"os":"Windows 10","vsync_rate":60.02,"participant_id":"SK_1","trial_duration":886},{"rt":1777,"stimulus":"stimuli/White_str-30.0_diff24.0.png","response":"arrowleft","screen":"Trial","block":"White","correct_response":"arrowleft","trial_type":"image-keyboard-response","trial_index":128,"time_elapsed":352408,"internal_node_id":"0.0-5.0-2.0-1.23","screen_height":641,"screen_width":1283,"browser":"chrome","browser_version":"103.0.0","mobile":false,"os":"Windows 10","vsync_rate":60.02,"participant_id":"SK_1","prestimulus_duration":897,"correct":true,"type":"White","illusion_strength":-30,"illusion_difference":24,"block_number":2,"trial_number":24},{"rt":null,"stimulus":"<div style=\"font-size:60px;\">+</div>","response":null,"screen":"fixation","trial_type":"html-keyboard-response","trial_index":129,"time_elapsed":353129,"internal_node_id":"0.0-5.0-2.0-0.24","screen_height":641,"screen_width":1283,"browser":"chrome","browser_version":"103.0.0","mobile":false,"os":"Windows 10","vsync_rate":60.02,"participant_id":"SK_1","trial_duration":714},{"rt":765,"stimulus":"stimuli/White_str18.0_diff-8.0.png","response":"arrowright","screen":"Trial","block":"White","correct_response":"arrowright","trial_type":"image-keyboard-response","trial_index":130,"time_elapsed":353895,"internal_node_id":"0.0-5.0-2.0-1.24","screen_height":641,"screen_width":1283,"browser":"chrome","browser_version":"103.0.0","mobile":false,"os":"Windows 10","vsync_rate":60.02,"participant_id":"SK_1","prestimulus_duration":721,"correct":true,"type":"White","illusion_strength":18,"illusion_difference":-8,"block_number":2,"trial_number":25},{"rt":null,"stimulus":"<div style=\"font-size:60px;\">+</div>","response":null,"screen":"fixation","trial_type":"html-keyboard-response","trial_index":131,"time_elapsed":354363,"internal_node_id":"0.0-5.0-2.0-0.25","screen_height":641,"screen_width":1283,"browser":"chrome","browser_version":"103.0.0","mobile":false,"os":"Windows 10","vsync_rate":60.02,"participant_id":"SK_1","trial_duration":453},{"rt":884,"stimulus":"stimuli/White_str18.0_diff24.0.png","response":"arrowleft","screen":"Trial","block":"White","correct_response":"arrowleft","trial_type":"image-keyboard-response","trial_index":132,"time_elapsed":355247,"internal_node_id":"0.0-5.0-2.0-1.25","screen_height":641,"screen_width":1283,"browser":"chrome","browser_version":"103.0.0","mobile":false,"os":"Windows 10","vsync_rate":60.02,"participant_id":"SK_1","prestimulus_duration":468,"correct":true,"type":"White","illusion_strength":18,"illusion_difference":24,"block_number":2,"trial_number":26},{"rt":null,"stimulus":"<div style=\"font-size:60px;\">+</div>","response":null,"screen":"fixation","trial_type":"html-keyboard-response","trial_index":133,"time_elapsed":356012,"internal_node_id":"0.0-5.0-2.0-0.26","screen_height":641,"screen_width":1283,"browser":"chrome","browser_version":"103.0.0","mobile":false,"os":"Windows 10","vsync_rate":60.02,"participant_id":"SK_1","trial_duration":761},{"rt":992,"stimulus":"stimuli/White_str-30.0_diff-40.0.png","response":"arrowright","screen":"Trial","block":"White","correct_response":"arrowright","trial_type":"image-keyboard-response","trial_index":134,"time_elapsed":357005,"internal_node_id":"0.0-5.0-2.0-1.26","screen_height":641,"screen_width":1283,"browser":"chrome","browser_version":"103.0.0","mobile":false,"os":"Windows 10","vsync_rate":60.02,"participant_id":"SK_1","prestimulus_duration":765,"correct":true,"type":"White","illusion_strength":-30,"illusion_difference":-40,"block_number":2,"trial_number":27},{"rt":null,"stimulus":"<div style=\"font-size:60px;\">+</div>","response":null,"screen":"fixation","trial_type":"html-keyboard-response","trial_index":135,"time_elapsed":357544,"internal_node_id":"0.0-5.0-2.0-0.27","screen_height":641,"screen_width":1283,"browser":"chrome","browser_version":"103.0.0","mobile":false,"os":"Windows 10","vsync_rate":60.02,"participant_id":"SK_1","trial_duration":530},{"rt":909,"stimulus":"stimuli/White_str18.0_diff-24.0.png","response":"arrowright","screen":"Trial","block":"White","correct_response":"arrowright","trial_type":"image-keyboard-response","trial_index":136,"time_elapsed":358454,"internal_node_id":"0.0-5.0-2.0-1.27","screen_height":641,"screen_width":1283,"browser":"chrome","browser_version":"103.0.0","mobile":false,"os":"Windows 10","vsync_rate":60.02,"participant_id":"SK_1","prestimulus_duration":539,"correct":true,"type":"White","illusion_strength":18,"illusion_difference":-24,"block_number":2,"trial_number":28},{"rt":null,"stimulus":"<div style=\"font-size:60px;\">+</div>","response":null,"screen":"fixation","trial_type":"html-keyboard-response","trial_index":137,"time_elapsed":359296,"internal_node_id":"0.0-5.0-2.0-0.28","screen_height":641,"screen_width":1283,"browser":"chrome","browser_version":"103.0.0","mobile":false,"os":"Windows 10","vsync_rate":60.02,"participant_id":"SK_1","trial_duration":826},{"rt":888,"stimulus":"stimuli/White_str18.0_diff-40.0.png","response":"arrowright","screen":"Trial","block":"White","correct_response":"arrowright","trial_type":"image-keyboard-response","trial_index":138,"time_elapsed":360185,"internal_node_id":"0.0-5.0-2.0-1.28","screen_height":641,"screen_width":1283,"browser":"chrome","browser_version":"103.0.0","mobile":false,"os":"Windows 10","vsync_rate":60.02,"participant_id":"SK_1","prestimulus_duration":842,"correct":true,"type":"White","illusion_strength":18,"illusion_difference":-40,"block_number":2,"trial_number":29},{"rt":null,"stimulus":"<div style=\"font-size:60px;\">+</div>","response":null,"screen":"fixation","trial_type":"html-keyboard-response","trial_index":139,"time_elapsed":361059,"internal_node_id":"0.0-5.0-2.0-0.29","screen_height":641,"screen_width":1283,"browser":"chrome","browser_version":"103.0.0","mobile":false,"os":"Windows 10","vsync_rate":60.02,"participant_id":"SK_1","trial_duration":865},{"rt":768,"stimulus":"stimuli/White_str18.0_diff8.0.png","response":"arrowleft","screen":"Trial","block":"White","correct_response":"arrowleft","trial_type":"image-keyboard-response","trial_index":140,"time_elapsed":361828,"internal_node_id":"0.0-5.0-2.0-1.29","screen_height":641,"screen_width":1283,"browser":"chrome","browser_version":"103.0.0","mobile":false,"os":"Windows 10","vsync_rate":60.02,"participant_id":"SK_1","prestimulus_duration":874,"correct":true,"type":"White","illusion_strength":18,"illusion_difference":8,"block_number":2,"trial_number":30},{"rt":null,"stimulus":"<div style=\"font-size:60px;\">+</div>","response":null,"screen":"fixation","trial_type":"html-keyboard-response","trial_index":141,"time_elapsed":362799,"internal_node_id":"0.0-5.0-2.0-0.30","screen_height":641,"screen_width":1283,"browser":"chrome","browser_version":"103.0.0","mobile":false,"os":"Windows 10","vsync_rate":60.02,"participant_id":"SK_1","trial_duration":967},{"rt":1070,"stimulus":"stimuli/White_str30.0_diff-40.0.png","response":"arrowright","screen":"Trial","block":"White","correct_response":"arrowright","trial_type":"image-keyboard-response","trial_index":142,"time_elapsed":363869,"internal_node_id":"0.0-5.0-2.0-1.30","screen_height":641,"screen_width":1283,"browser":"chrome","browser_version":"103.0.0","mobile":false,"os":"Windows 10","vsync_rate":60.02,"participant_id":"SK_1","prestimulus_duration":971,"correct":true,"type":"White","illusion_strength":30,"illusion_difference":-40,"block_number":2,"trial_number":31},{"rt":null,"stimulus":"<div style=\"font-size:60px;\">+</div>","response":null,"screen":"fixation","trial_type":"html-keyboard-response","trial_index":143,"time_elapsed":364273,"internal_node_id":"0.0-5.0-2.0-0.31","screen_height":641,"screen_width":1283,"browser":"chrome","browser_version":"103.0.0","mobile":false,"os":"Windows 10","vsync_rate":60.02,"participant_id":"SK_1","trial_duration":399},{"rt":2698,"stimulus":"stimuli/White_str-6.0_diff8.0.png","response":"arrowleft","screen":"Trial","block":"White","correct_response":"arrowleft","trial_type":"image-keyboard-response","trial_index":144,"time_elapsed":366971,"internal_node_id":"0.0-5.0-2.0-1.31","screen_height":641,"screen_width":1283,"browser":"chrome","browser_version":"103.0.0","mobile":false,"os":"Windows 10","vsync_rate":60.02,"participant_id":"SK_1","prestimulus_duration":404,"correct":true,"type":"White","illusion_strength":-6,"illusion_difference":8,"block_number":2,"trial_number":32},{"rt":null,"stimulus":"<div style=\"font-size:60px;\">+</div>","response":null,"screen":"fixation","trial_type":"html-keyboard-response","trial_index":145,"time_elapsed":367576,"internal_node_id":"0.0-5.0-2.0-0.32","screen_height":641,"screen_width":1283,"browser":"chrome","browser_version":"103.0.0","mobile":false,"os":"Windows 10","vsync_rate":60.02,"participant_id":"SK_1","trial_duration":592},{"rt":1546,"stimulus":"stimuli/White_str6.0_diff24.0.png","response":"arrowleft","screen":"Trial","block":"White","correct_response":"arrowleft","trial_type":"image-keyboard-response","trial_index":146,"time_elapsed":369123,"internal_node_id":"0.0-5.0-2.0-1.32","screen_height":641,"screen_width":1283,"browser":"chrome","browser_version":"103.0.0","mobile":false,"os":"Windows 10","vsync_rate":60.02,"participant_id":"SK_1","prestimulus_duration":605,"correct":true,"type":"White","illusion_strength":6,"illusion_difference":24,"block_number":2,"trial_number":33},{"rt":null,"stimulus":"<div style=\"font-size:60px;\">+</div>","response":null,"screen":"fixation","trial_type":"html-keyboard-response","trial_index":147,"time_elapsed":370025,"internal_node_id":"0.0-5.0-2.0-0.33","screen_height":641,"screen_width":1283,"browser":"chrome","browser_version":"103.0.0","mobile":false,"os":"Windows 10","vsync_rate":60.02,"participant_id":"SK_1","trial_duration":888},{"rt":734,"stimulus":"stimuli/White_str30.0_diff40.0.png","response":"arrowleft","screen":"Trial","block":"White","correct_response":"arrowleft","trial_type":"image-keyboard-response","trial_index":148,"time_elapsed":370759,"internal_node_id":"0.0-5.0-2.0-1.33","screen_height":641,"screen_width":1283,"browser":"chrome","browser_version":"103.0.0","mobile":false,"os":"Windows 10","vsync_rate":60.02,"participant_id":"SK_1","prestimulus_duration":902,"correct":true,"type":"White","illusion_strength":30,"illusion_difference":40,"block_number":2,"trial_number":34},{"rt":null,"stimulus":"<div style=\"font-size:60px;\">+</div>","response":null,"screen":"fixation","trial_type":"html-keyboard-response","trial_index":149,"time_elapsed":371196,"internal_node_id":"0.0-5.0-2.0-0.34","screen_height":641,"screen_width":1283,"browser":"chrome","browser_version":"103.0.0","mobile":false,"os":"Windows 10","vsync_rate":60.02,"participant_id":"SK_1","trial_duration":421},{"rt":1059,"stimulus":"stimuli/White_str30.0_diff-8.0.png","response":"arrowright","screen":"Trial","block":"White","correct_response":"arrowright","trial_type":"image-keyboard-response","trial_index":150,"time_elapsed":372256,"internal_node_id":"0.0-5.0-2.0-1.34","screen_height":641,"screen_width":1283,"browser":"chrome","browser_version":"103.0.0","mobile":false,"os":"Windows 10","vsync_rate":60.02,"participant_id":"SK_1","prestimulus_duration":437,"correct":true,"type":"White","illusion_strength":30,"illusion_difference":-8,"block_number":2,"trial_number":35},{"rt":null,"stimulus":"<div style=\"font-size:60px;\">+</div>","response":null,"screen":"fixation","trial_type":"html-keyboard-response","trial_index":151,"time_elapsed":372950,"internal_node_id":"0.0-5.0-2.0-0.35","screen_height":641,"screen_width":1283,"browser":"chrome","browser_version":"103.0.0","mobile":false,"os":"Windows 10","vsync_rate":60.02,"participant_id":"SK_1","trial_duration":689},{"rt":1651,"stimulus":"stimuli/White_str-18.0_diff-40.0.png","response":"arrowright","screen":"Trial","block":"White","correct_response":"arrowright","trial_type":"image-keyboard-response","trial_index":152,"time_elapsed":374601,"internal_node_id":"0.0-5.0-2.0-1.35","screen_height":641,"screen_width":1283,"browser":"chrome","browser_version":"103.0.0","mobile":false,"os":"Windows 10","vsync_rate":60.02,"participant_id":"SK_1","prestimulus_duration":694,"correct":true,"type":"White","illusion_strength":-18,"illusion_difference":-40,"block_number":2,"trial_number":36},{"rt":1231,"stimulus":"<p>Your score for this illusion is <p style=\"color: black; font-size: 48px; font-weight: bold;\">3559</p><hr><hr><p>Can you do better in the next illusion?</p>","response":0,"screen":"block_results","trial_type":"html-button-response","trial_index":153,"time_elapsed":375835,"internal_node_id":"0.0-5.0-3.0","screen_height":641,"screen_width":1283,"browser":"chrome","browser_version":"103.0.0","mobile":false,"os":"Windows 10","vsync_rate":60.02,"participant_id":"SK_1"},{"success":true,"timeout":false,"failed_images":[],"failed_audio":[],"failed_video":[],"trial_type":"preload","trial_index":154,"time_elapsed":375837,"internal_node_id":"0.0-6.0-0.0","screen_height":641,"screen_width":1283,"browser":"chrome","browser_version":"103.0.0","mobile":false,"os":"Windows 10","vsync_rate":60.02,"participant_id":"SK_1"},{"rt":21066,"stimulus":"<p><b>Part 3</b></p><p>In this part, one vertical red line will appear in a square.</p><p>Your task is to tell <b>which direction</b> is the red line leaning, as fast as you can, and without making errors.</p><p>Don't get distracted by the black square!</p><p>Press <b>the LEFT or the RIGHT arrow</b> to indicate the <b>direction where the red line is leaning.</b></p><div style='float: center'><img src='utils/stimuli_demo/RodFrame_Demo.png' height='300'></img><p><img src='utils/answer/answer_leftright_keyboard.PNG' height='150'></img></p><p class='small'>In this example, the correct answer is the <b>LEFT arrow</b>.</p></div><p>Are you ready? <b>Press ENTER to start</b></p>","response":"enter","trial_type":"html-keyboard-response","trial_index":155,"time_elapsed":396904,"internal_node_id":"0.0-6.0-1.0","screen_height":641,"screen_width":1283,"browser":"chrome","browser_version":"103.0.0","mobile":false,"os":"Windows 10","vsync_rate":60.02,"participant_id":"SK_1"},{"rt":null,"stimulus":"<div style=\"font-size:60px;\">+</div>","response":null,"screen":"fixation","trial_type":"html-keyboard-response","trial_index":156,"time_elapsed":398419,"internal_node_id":"0.0-6.0-2.0-0.0","screen_height":641,"screen_width":1283,"browser":"chrome","browser_version":"103.0.0","mobile":false,"os":"Windows 10","vsync_rate":60.02,"participant_id":"SK_1","trial_duration":995},{"rt":739,"stimulus":"stimuli/RodFrame_str18.0_diff20.0.png","response":"arrowright","screen":"Trial","block":"RodFrame","correct_response":"arrowright","trial_type":"image-keyboard-response","trial_index":157,"time_elapsed":399159,"internal_node_id":"0.0-6.0-2.0-1.0","screen_height":641,"screen_width":1283,"browser":"chrome","browser_version":"103.0.0","mobile":false,"os":"Windows 10","vsync_rate":60.02,"participant_id":"SK_1","prestimulus_duration":1515,"correct":true,"type":"RodFrame","illusion_strength":18,"illusion_difference":20,"block_number":3,"trial_number":1},{"rt":null,"stimulus":"<div style=\"font-size:60px;\">+</div>","response":null,"screen":"fixation","trial_type":"html-keyboard-response","trial_index":158,"time_elapsed":399856,"internal_node_id":"0.0-6.0-2.0-0.1","screen_height":641,"screen_width":1283,"browser":"chrome","browser_version":"103.0.0","mobile":false,"os":"Windows 10","vsync_rate":60.02,"participant_id":"SK_1","trial_duration":684},{"rt":954,"stimulus":"stimuli/RodFrame_str18.0_diff4.0.png","response":"arrowright","screen":"Trial","block":"RodFrame","correct_response":"arrowright","trial_type":"image-keyboard-response","trial_index":159,"time_elapsed":400812,"internal_node_id":"0.0-6.0-2.0-1.1","screen_height":641,"screen_width":1283,"browser":"chrome","browser_version":"103.0.0","mobile":false,"os":"Windows 10","vsync_rate":60.02,"participant_id":"SK_1","prestimulus_duration":697,"correct":true,"type":"RodFrame","illusion_strength":18,"illusion_difference":4,"block_number":3,"trial_number":2},{"rt":null,"stimulus":"<div style=\"font-size:60px;\">+</div>","response":null,"screen":"fixation","trial_type":"html-keyboard-response","trial_index":160,"time_elapsed":401483,"internal_node_id":"0.0-6.0-2.0-0.2","screen_height":641,"screen_width":1283,"browser":"chrome","browser_version":"103.0.0","mobile":false,"os":"Windows 10","vsync_rate":60.02,"participant_id":"SK_1","trial_duration":669},{"rt":669,"stimulus":"stimuli/RodFrame_str-30.0_diff20.0.png","response":"arrowright","screen":"Trial","block":"RodFrame","correct_response":"arrowright","trial_type":"image-keyboard-response","trial_index":161,"time_elapsed":402152,"internal_node_id":"0.0-6.0-2.0-1.2","screen_height":641,"screen_width":1283,"browser":"chrome","browser_version":"103.0.0","mobile":false,"os":"Windows 10","vsync_rate":60.02,"participant_id":"SK_1","prestimulus_duration":671,"correct":true,"type":"RodFrame","illusion_strength":-30,"illusion_difference":20,"block_number":3,"trial_number":3},{"rt":null,"stimulus":"<div style=\"font-size:60px;\">+</div>","response":null,"screen":"fixation","trial_type":"html-keyboard-response","trial_index":162,"time_elapsed":402525,"internal_node_id":"0.0-6.0-2.0-0.3","screen_height":641,"screen_width":1283,"browser":"chrome","browser_version":"103.0.0","mobile":false,"os":"Windows 10","vsync_rate":60.02,"participant_id":"SK_1","trial_duration":360},{"rt":720,"stimulus":"stimuli/RodFrame_str-18.0_diff-12.0.png","response":"arrowleft","screen":"Trial","block":"RodFrame","correct_response":"arrowleft","trial_type":"image-keyboard-response","trial_index":163,"time_elapsed":403245,"internal_node_id":"0.0-6.0-2.0-1.3","screen_height":641,"screen_width":1283,"browser":"chrome","browser_version":"103.0.0","mobile":false,"os":"Windows 10","vsync_rate":60.02,"participant_id":"SK_1","prestimulus_duration":373,"correct":true,"type":"RodFrame","illusion_strength":-18,"illusion_difference":-12,"block_number":3,"trial_number":4},{"rt":null,"stimulus":"<div style=\"font-size:60px;\">+</div>","response":null,"screen":"fixation","trial_type":"html-keyboard-response","trial_index":164,"time_elapsed":403665,"internal_node_id":"0.0-6.0-2.0-0.4","screen_height":641,"screen_width":1283,"browser":"chrome","browser_version":"103.0.0","mobile":false,"os":"Windows 10","vsync_rate":60.02,"participant_id":"SK_1","trial_duration":410},{"rt":658,"stimulus":"stimuli/RodFrame_str30.0_diff4.0.png","response":"arrowright","screen":"Trial","block":"RodFrame","correct_response":"arrowright","trial_type":"image-keyboard-response","trial_index":165,"time_elapsed":404323,"internal_node_id":"0.0-6.0-2.0-1.4","screen_height":641,"screen_width":1283,"browser":"chrome","browser_version":"103.0.0","mobile":false,"os":"Windows 10","vsync_rate":60.02,"participant_id":"SK_1","prestimulus_duration":420,"correct":true,"type":"RodFrame","illusion_strength":30,"illusion_difference":4,"block_number":3,"trial_number":5},{"rt":null,"stimulus":"<div style=\"font-size:60px;\">+</div>","response":null,"screen":"fixation","trial_type":"html-keyboard-response","trial_index":166,"time_elapsed":404914,"internal_node_id":"0.0-6.0-2.0-0.5","screen_height":641,"screen_width":1283,"browser":"chrome","browser_version":"103.0.0","mobile":false,"os":"Windows 10","vsync_rate":60.02,"participant_id":"SK_1","trial_duration":579},{"rt":648,"stimulus":"stimuli/RodFrame_str-30.0_diff-4.0.png","response":"arrowleft","screen":"Trial","block":"RodFrame","correct_response":"arrowleft","trial_type":"image-keyboard-response","trial_index":167,"time_elapsed":405563,"internal_node_id":"0.0-6.0-2.0-1.5","screen_height":641,"screen_width":1283,"browser":"chrome","browser_version":"103.0.0","mobile":false,"os":"Windows 10","vsync_rate":60.02,"participant_id":"SK_1","prestimulus_duration":591,"correct":true,"type":"RodFrame","illusion_strength":-30,"illusion_difference":-4,"block_number":3,"trial_number":6},{"rt":null,"stimulus":"<div style=\"font-size:60px;\">+</div>","response":null,"screen":"fixation","trial_type":"html-keyboard-response","trial_index":168,"time_elapsed":406504,"internal_node_id":"0.0-6.0-2.0-0.6","screen_height":641,"screen_width":1283,"browser":"chrome","browser_version":"103.0.0","mobile":false,"os":"Windows 10","vsync_rate":60.02,"participant_id":"SK_1","trial_duration":930},{"rt":755,"stimulus":"stimuli/RodFrame_str-30.0_diff-20.0.png","response":"arrowleft","screen":"Trial","block":"RodFrame","correct_response":"arrowleft","trial_type":"image-keyboard-response","trial_index":169,"time_elapsed":407260,"internal_node_id":"0.0-6.0-2.0-1.6","screen_height":641,"screen_width":1283,"browser":"chrome","browser_version":"103.0.0","mobile":false,"os":"Windows 10","vsync_rate":60.02,"participant_id":"SK_1","prestimulus_duration":941,"correct":true,"type":"RodFrame","illusion_strength":-30,"illusion_difference":-20,"block_number":3,"trial_number":7},{"rt":null,"stimulus":"<div style=\"font-size:60px;\">+</div>","response":null,"screen":"fixation","trial_type":"html-keyboard-response","trial_index":170,"time_elapsed":408191,"internal_node_id":"0.0-6.0-2.0-0.7","screen_height":641,"screen_width":1283,"browser":"chrome","browser_version":"103.0.0","mobile":false,"os":"Windows 10","vsync_rate":60.02,"participant_id":"SK_1","trial_duration":916},{"rt":784,"stimulus":"stimuli/RodFrame_str18.0_diff12.0.png","response":"arrowright","screen":"Trial","block":"RodFrame","correct_response":"arrowright","trial_type":"image-keyboard-response","trial_index":171,"time_elapsed":408976,"internal_node_id":"0.0-6.0-2.0-1.7","screen_height":641,"screen_width":1283,"browser":"chrome","browser_version":"103.0.0","mobile":false,"os":"Windows 10","vsync_rate":60.02,"participant_id":"SK_1","prestimulus_duration":931,"correct":true,"type":"RodFrame","illusion_strength":18,"illusion_difference":12,"block_number":3,"trial_number":8},{"rt":null,"stimulus":"<div style=\"font-size:60px;\">+</div>","response":null,"screen":"fixation","trial_type":"html-keyboard-response","trial_index":172,"time_elapsed":409454,"internal_node_id":"0.0-6.0-2.0-0.8","screen_height":641,"screen_width":1283,"browser":"chrome","browser_version":"103.0.0","mobile":false,"os":"Windows 10","vsync_rate":60.02,"participant_id":"SK_1","trial_duration":470},{"rt":659,"stimulus":"stimuli/RodFrame_str-30.0_diff-12.0.png","response":"arrowleft","screen":"Trial","block":"RodFrame","correct_response":"arrowleft","trial_type":"image-keyboard-response","trial_index":173,"time_elapsed":410114,"internal_node_id":"0.0-6.0-2.0-1.8","screen_height":641,"screen_width":1283,"browser":"chrome","browser_version":"103.0.0","mobile":false,"os":"Windows 10","vsync_rate":60.02,"participant_id":"SK_1","prestimulus_duration":478,"correct":true,"type":"RodFrame","illusion_strength":-30,"illusion_difference":-12,"block_number":3,"trial_number":9},{"rt":null,"stimulus":"<div style=\"font-size:60px;\">+</div>","response":null,"screen":"fixation","trial_type":"html-keyboard-response","trial_index":174,"time_elapsed":410816,"internal_node_id":"0.0-6.0-2.0-0.9","screen_height":641,"screen_width":1283,"browser":"chrome","browser_version":"103.0.0","mobile":false,"os":"Windows 10","vsync_rate":60.02,"participant_id":"SK_1","trial_duration":699},{"rt":595,"stimulus":"stimuli/RodFrame_str-18.0_diff-4.0.png","response":"arrowright","screen":"Trial","block":"RodFrame","correct_response":"arrowleft","trial_type":"image-keyboard-response","trial_index":175,"time_elapsed":411411,"internal_node_id":"0.0-6.0-2.0-1.9","screen_height":641,"screen_width":1283,"browser":"chrome","browser_version":"103.0.0","mobile":false,"os":"Windows 10","vsync_rate":60.02,"participant_id":"SK_1","prestimulus_duration":702,"correct":false,"type":"RodFrame","illusion_strength":-18,"illusion_difference":-4,"block_number":3,"trial_number":10},{"rt":null,"stimulus":"<div style=\"font-size:60px;\">+</div>","response":null,"screen":"fixation","trial_type":"html-keyboard-response","trial_index":176,"time_elapsed":412314,"internal_node_id":"0.0-6.0-2.0-0.10","screen_height":641,"screen_width":1283,"browser":"chrome","browser_version":"103.0.0","mobile":false,"os":"Windows 10","vsync_rate":60.02,"participant_id":"SK_1","trial_duration":895},{"rt":1114,"stimulus":"stimuli/RodFrame_str18.0_diff-20.0.png","response":"arrowleft","screen":"Trial","block":"RodFrame","correct_response":"arrowleft","trial_type":"image-keyboard-response","trial_index":177,"time_elapsed":413429,"internal_node_id":"0.0-6.0-2.0-1.10","screen_height":641,"screen_width":1283,"browser":"chrome","browser_version":"103.0.0","mobile":false,"os":"Windows 10","vsync_rate":60.02,"participant_id":"SK_1","prestimulus_duration":903,"correct":true,"type":"RodFrame","illusion_strength":18,"illusion_difference":-20,"block_number":3,"trial_number":11},{"rt":null,"stimulus":"<div style=\"font-size:60px;\">+</div>","response":null,"screen":"fixation","trial_type":"html-keyboard-response","trial_index":178,"time_elapsed":413801,"internal_node_id":"0.0-6.0-2.0-0.11","screen_height":641,"screen_width":1283,"browser":"chrome","browser_version":"103.0.0","mobile":false,"os":"Windows 10","vsync_rate":60.02,"participant_id":"SK_1","trial_duration":362},{"rt":715,"stimulus":"stimuli/RodFrame_str6.0_diff20.0.png","response":"arrowright","screen":"Trial","block":"RodFrame","correct_response":"arrowright","trial_type":"image-keyboard-response","trial_index":179,"time_elapsed":414517,"internal_node_id":"0.0-6.0-2.0-1.11","screen_height":641,"screen_width":1283,"browser":"chrome","browser_version":"103.0.0","mobile":false,"os":"Windows 10","vsync_rate":60.02,"participant_id":"SK_1","prestimulus_duration":372,"correct":true,"type":"RodFrame","illusion_strength":6,"illusion_difference":20,"block_number":3,"trial_number":12},{"rt":null,"stimulus":"<div style=\"font-size:60px;\">+</div>","response":null,"screen":"fixation","trial_type":"html-keyboard-response","trial_index":180,"time_elapsed":415314,"internal_node_id":"0.0-6.0-2.0-0.12","screen_height":641,"screen_width":1283,"browser":"chrome","browser_version":"103.0.0","mobile":false,"os":"Windows 10","vsync_rate":60.02,"participant_id":"SK_1","trial_duration":781},{"rt":741,"stimulus":"stimuli/RodFrame_str30.0_diff12.0.png","response":"arrowright","screen":"Trial","block":"RodFrame","correct_response":"arrowright","trial_type":"image-keyboard-response","trial_index":181,"time_elapsed":416056,"internal_node_id":"0.0-6.0-2.0-1.12","screen_height":641,"screen_width":1283,"browser":"chrome","browser_version":"103.0.0","mobile":false,"os":"Windows 10","vsync_rate":60.02,"participant_id":"SK_1","prestimulus_duration":797,"correct":true,"type":"RodFrame","illusion_strength":30,"illusion_difference":12,"block_number":3,"trial_number":13},{"rt":null,"stimulus":"<div style=\"font-size:60px;\">+</div>","response":null,"screen":"fixation","trial_type":"html-keyboard-response","trial_index":182,"time_elapsed":417006,"internal_node_id":"0.0-6.0-2.0-0.13","screen_height":641,"screen_width":1283,"browser":"chrome","browser_version":"103.0.0","mobile":false,"os":"Windows 10","vsync_rate":60.02,"participant_id":"SK_1","trial_duration":933},{"rt":1089,"stimulus":"stimuli/RodFrame_str-6.0_diff4.0.png","response":"arrowright","screen":"Trial","block":"RodFrame","correct_response":"arrowright","trial_type":"image-keyboard-response","trial_index":183,"time_elapsed":418096,"internal_node_id":"0.0-6.0-2.0-1.13","screen_height":641,"screen_width":1283,"browser":"chrome","browser_version":"103.0.0","mobile":false,"os":"Windows 10","vsync_rate":60.02,"participant_id":"SK_1","prestimulus_duration":950,"correct":true,"type":"RodFrame","illusion_strength":-6,"illusion_difference":4,"block_number":3,"trial_number":14},{"rt":null,"stimulus":"<div style=\"font-size:60px;\">+</div>","response":null,"screen":"fixation","trial_type":"html-keyboard-response","trial_index":184,"time_elapsed":418627,"internal_node_id":"0.0-6.0-2.0-0.14","screen_height":641,"screen_width":1283,"browser":"chrome","browser_version":"103.0.0","mobile":false,"os":"Windows 10","vsync_rate":60.02,"participant_id":"SK_1","trial_duration":521},{"rt":839,"stimulus":"stimuli/RodFrame_str18.0_diff-4.0.png","response":"arrowleft","screen":"Trial","block":"RodFrame","correct_response":"arrowleft","trial_type":"image-keyboard-response","trial_index":185,"time_elapsed":419467,"internal_node_id":"0.0-6.0-2.0-1.14","screen_height":641,"screen_width":1283,"browser":"chrome","browser_version":"103.0.0","mobile":false,"os":"Windows 10","vsync_rate":60.02,"participant_id":"SK_1","prestimulus_duration":531,"correct":true,"type":"RodFrame","illusion_strength":18,"illusion_difference":-4,"block_number":3,"trial_number":15},{"rt":null,"stimulus":"<div style=\"font-size:60px;\">+</div>","response":null,"screen":"fixation","trial_type":"html-keyboard-response","trial_index":186,"time_elapsed":419765,"internal_node_id":"0.0-6.0-2.0-0.15","screen_height":641,"screen_width":1283,"browser":"chrome","browser_version":"103.0.0","mobile":false,"os":"Windows 10","vsync_rate":60.02,"participant_id":"SK_1","trial_duration":289},{"rt":758,"stimulus":"stimuli/RodFrame_str6.0_diff12.0.png","response":"arrowright","screen":"Trial","block":"RodFrame","correct_response":"arrowright","trial_type":"image-keyboard-response","trial_index":187,"time_elapsed":420524,"internal_node_id":"0.0-6.0-2.0-1.15","screen_height":641,"screen_width":1283,"browser":"chrome","browser_version":"103.0.0","mobile":false,"os":"Windows 10","vsync_rate":60.02,"participant_id":"SK_1","prestimulus_duration":298,"correct":true,"type":"RodFrame","illusion_strength":6,"illusion_difference":12,"block_number":3,"trial_number":16},{"rt":null,"stimulus":"<div style=\"font-size:60px;\">+</div>","response":null,"screen":"fixation","trial_type":"html-keyboard-response","trial_index":188,"time_elapsed":421435,"internal_node_id":"0.0-6.0-2.0-0.16","screen_height":641,"screen_width":1283,"browser":"chrome","browser_version":"103.0.0","mobile":false,"os":"Windows 10","vsync_rate":60.02,"participant_id":"SK_1","trial_duration":907},{"rt":764,"stimulus":"stimuli/RodFrame_str-18.0_diff12.0.png","response":"arrowleft","screen":"Trial","block":"RodFrame","correct_response":"arrowright","trial_type":"image-keyboard-response","trial_index":189,"time_elapsed":422200,"internal_node_id":"0.0-6.0-2.0-1.16","screen_height":641,"screen_width":1283,"browser":"chrome","browser_version":"103.0.0","mobile":false,"os":"Windows 10","vsync_rate":60.02,"participant_id":"SK_1","prestimulus_duration":911,"correct":false,"type":"RodFrame","illusion_strength":-18,"illusion_difference":12,"block_number":3,"trial_number":17},{"rt":null,"stimulus":"<div style=\"font-size:60px;\">+</div>","response":null,"screen":"fixation","trial_type":"html-keyboard-response","trial_index":190,"time_elapsed":423044,"internal_node_id":"0.0-6.0-2.0-0.17","screen_height":641,"screen_width":1283,"browser":"chrome","browser_version":"103.0.0","mobile":false,"os":"Windows 10","vsync_rate":60.02,"participant_id":"SK_1","trial_duration":837},{"rt":938,"stimulus":"stimuli/RodFrame_str-6.0_diff12.0.png","response":"arrowright","screen":"Trial","block":"RodFrame","correct_response":"arrowright","trial_type":"image-keyboard-response","trial_index":191,"time_elapsed":423983,"internal_node_id":"0.0-6.0-2.0-1.17","screen_height":641,"screen_width":1283,"browser":"chrome","browser_version":"103.0.0","mobile":false,"os":"Windows 10","vsync_rate":60.02,"participant_id":"SK_1","prestimulus_duration":844,"correct":true,"type":"RodFrame","illusion_strength":-6,"illusion_difference":12,"block_number":3,"trial_number":18},{"rt":null,"stimulus":"<div style=\"font-size:60px;\">+</div>","response":null,"screen":"fixation","trial_type":"html-keyboard-response","trial_index":192,"time_elapsed":424781,"internal_node_id":"0.0-6.0-2.0-0.18","screen_height":641,"screen_width":1283,"browser":"chrome","browser_version":"103.0.0","mobile":false,"os":"Windows 10","vsync_rate":60.02,"participant_id":"SK_1","trial_duration":796},{"rt":1152,"stimulus":"stimuli/RodFrame_str30.0_diff-12.0.png","response":"arrowleft","screen":"Trial","block":"RodFrame","correct_response":"arrowleft","trial_type":"image-keyboard-response","trial_index":193,"time_elapsed":425933,"internal_node_id":"0.0-6.0-2.0-1.18","screen_height":641,"screen_width":1283,"browser":"chrome","browser_version":"103.0.0","mobile":false,"os":"Windows 10","vsync_rate":60.02,"participant_id":"SK_1","prestimulus_duration":798,"correct":true,"type":"RodFrame","illusion_strength":30,"illusion_difference":-12,"block_number":3,"trial_number":19},{"rt":null,"stimulus":"<div style=\"font-size:60px;\">+</div>","response":null,"screen":"fixation","trial_type":"html-keyboard-response","trial_index":194,"time_elapsed":426386,"internal_node_id":"0.0-6.0-2.0-0.19","screen_height":641,"screen_width":1283,"browser":"chrome","browser_version":"103.0.0","mobile":false,"os":"Windows 10","vsync_rate":60.02,"participant_id":"SK_1","trial_duration":438},{"rt":748,"stimulus":"stimuli/RodFrame_str6.0_diff-20.0.png","response":"arrowleft","screen":"Trial","block":"RodFrame","correct_response":"arrowleft","trial_type":"image-keyboard-response","trial_index":195,"time_elapsed":427134,"internal_node_id":"0.0-6.0-2.0-1.19","screen_height":641,"screen_width":1283,"browser":"chrome","browser_version":"103.0.0","mobile":false,"os":"Windows 10","vsync_rate":60.02,"participant_id":"SK_1","prestimulus_duration":453,"correct":true,"type":"RodFrame","illusion_strength":6,"illusion_difference":-20,"block_number":3,"trial_number":20},{"rt":null,"stimulus":"<div style=\"font-size:60px;\">+</div>","response":null,"screen":"fixation","trial_type":"html-keyboard-response","trial_index":196,"time_elapsed":427878,"internal_node_id":"0.0-6.0-2.0-0.20","screen_height":641,"screen_width":1283,"browser":"chrome","browser_version":"103.0.0","mobile":false,"os":"Windows 10","vsync_rate":60.02,"participant_id":"SK_1","trial_duration":741},{"rt":746,"stimulus":"stimuli/RodFrame_str-6.0_diff20.0.png","response":"arrowright","screen":"Trial","block":"RodFrame","correct_response":"arrowright","trial_type":"image-keyboard-response","trial_index":197,"time_elapsed":428625,"internal_node_id":"0.0-6.0-2.0-1.20","screen_height":641,"screen_width":1283,"browser":"chrome","browser_version":"103.0.0","mobile":false,"os":"Windows 10","vsync_rate":60.02,"participant_id":"SK_1","prestimulus_duration":744,"correct":true,"type":"RodFrame","illusion_strength":-6,"illusion_difference":20,"block_number":3,"trial_number":21},{"rt":null,"stimulus":"<div style=\"font-size:60px;\">+</div>","response":null,"screen":"fixation","trial_type":"html-keyboard-response","trial_index":198,"time_elapsed":429174,"internal_node_id":"0.0-6.0-2.0-0.21","screen_height":641,"screen_width":1283,"browser":"chrome","browser_version":"103.0.0","mobile":false,"os":"Windows 10","vsync_rate":60.02,"participant_id":"SK_1","trial_duration":540},{"rt":720,"stimulus":"stimuli/RodFrame_str-6.0_diff-12.0.png","response":"arrowleft","screen":"Trial","block":"RodFrame","correct_response":"arrowleft","trial_type":"image-keyboard-response","trial_index":199,"time_elapsed":429896,"internal_node_id":"0.0-6.0-2.0-1.21","screen_height":641,"screen_width":1283,"browser":"chrome","browser_version":"103.0.0","mobile":false,"os":"Windows 10","vsync_rate":60.02,"participant_id":"SK_1","prestimulus_duration":549,"correct":true,"type":"RodFrame","illusion_strength":-6,"illusion_difference":-12,"block_number":3,"trial_number":22},{"rt":null,"stimulus":"<div style=\"font-size:60px;\">+</div>","response":null,"screen":"fixation","trial_type":"html-keyboard-response","trial_index":200,"time_elapsed":430386,"internal_node_id":"0.0-6.0-2.0-0.22","screen_height":641,"screen_width":1283,"browser":"chrome","browser_version":"103.0.0","mobile":false,"os":"Windows 10","vsync_rate":60.02,"participant_id":"SK_1","trial_duration":487},{"rt":716,"stimulus":"stimuli/RodFrame_str-18.0_diff4.0.png","response":"arrowright","screen":"Trial","block":"RodFrame","correct_response":"arrowright","trial_type":"image-keyboard-response","trial_index":201,"time_elapsed":431103,"internal_node_id":"0.0-6.0-2.0-1.22","screen_height":641,"screen_width":1283,"browser":"chrome","browser_version":"103.0.0","mobile":false,"os":"Windows 10","vsync_rate":60.02,"participant_id":"SK_1","prestimulus_duration":490,"correct":true,"type":"RodFrame","illusion_strength":-18,"illusion_difference":4,"block_number":3,"trial_number":23},{"rt":null,"stimulus":"<div style=\"font-size:60px;\">+</div>","response":null,"screen":"fixation","trial_type":"html-keyboard-response","trial_index":202,"time_elapsed":431807,"internal_node_id":"0.0-6.0-2.0-0.23","screen_height":641,"screen_width":1283,"browser":"chrome","browser_version":"103.0.0","mobile":false,"os":"Windows 10","vsync_rate":60.02,"participant_id":"SK_1","trial_duration":698},{"rt":681,"stimulus":"stimuli/RodFrame_str18.0_diff-12.0.png","response":"arrowleft","screen":"Trial","block":"RodFrame","correct_response":"arrowleft","trial_type":"image-keyboard-response","trial_index":203,"time_elapsed":432489,"internal_node_id":"0.0-6.0-2.0-1.23","screen_height":641,"screen_width":1283,"browser":"chrome","browser_version":"103.0.0","mobile":false,"os":"Windows 10","vsync_rate":60.02,"participant_id":"SK_1","prestimulus_duration":704,"correct":true,"type":"RodFrame","illusion_strength":18,"illusion_difference":-12,"block_number":3,"trial_number":24},{"rt":null,"stimulus":"<div style=\"font-size:60px;\">+</div>","response":null,"screen":"fixation","trial_type":"html-keyboard-response","trial_index":204,"time_elapsed":433227,"internal_node_id":"0.0-6.0-2.0-0.24","screen_height":641,"screen_width":1283,"browser":"chrome","browser_version":"103.0.0","mobile":false,