[{"success":true,"trial_type":"fullscreen","trial_index":0,"time_elapsed":1816,"internal_node_id":"0.0-0.0","screen_height":657,"screen_width":1280,"browser":"chrome","browser_version":"103.0.0","mobile":false,"os":"Windows 10","vsync_rate":59.99,"participant_id":"SK_1"},{"width":1280,"height":657,"webaudio":true,"browser":"chrome","browser_version":"103.0.0","mobile":false,"os":"Windows 10","fullscreen":true,"vsync_rate":59.99,"webcam":true,"microphone":true,"screen":"browser_info","trial_type":"browser-check","trial_index":1,"time_elapsed":2834,"internal_node_id":"0.0-1.0","screen_height":657,"screen_width":1280,"participant_id":"SK_1"},{"rt":107695,"response":{"Participant_ID":"SK_1"},"screen":"participant_info","version":"1.0","date":"12/07/2022","time":"15:59:40","trial_type":"survey-text","trial_index":2,"time_elapsed":110536,"internal_node_id":"0.0-2.0","screen_height":657,"screen_width":1280,"browser":"chrome","browser_version":"103.0.0","mobile":false,"os":"Windows 10","vsync_rate":59.99,"participant_id":"SK_1"},{"rt":1452,"stimulus":"<p><b>The Illusion Game</b></p><p>In this reaction-time game, you will need to be <b>as fast as possible</b> and make correct responses by resisting different visual illusions.</p><p>We will show you examples of each illusion before each block.</p><p>Remember, your goal is to be as <b>fast</b> and <b>accurate</b> as possible. Good luck!</p>","response":0,"screen":"general_instructions","trial_type":"html-button-response","trial_index":3,"time_elapsed":111991,"internal_node_id":"0.0-3.0","screen_height":657,"screen_width":1280,"browser":"chrome","browser_version":"103.0.0","mobile":false,"os":"Windows 10","vsync_rate":59.99,"participant_id":"SK_1"},{"success":true,"timeout":false,"failed_images":[],"failed_audio":[],"failed_video":[],"trial_type":"preload","trial_index":4,"time_elapsed":111994,"internal_node_id":"0.0-4.0-0.0","screen_height":657,"screen_width":1280,"browser":"chrome","browser_version":"103.0.0","mobile":false,"os":"Windows 10","vsync_rate":59.99,"participant_id":"SK_1"},{"rt":3508,"stimulus":"<p><b>Part 1</b></p><p>In this part, two red circles will appear side by side on the screen.</p><p>Your task is to select which <b>red circle is bigger</b> in size as fast as you can, without making errors.</p><p>Don't get distracted by the black outlines around the red circles!</p><p>Press <b>the LEFT or the RIGHT arrow</b> to indicate where is the biggest <b>red circle.</b></p><div style='float: center'><img src='utils/stimuli_demo/Delboeuf_Demo.png' height='300'></img><p><img src='utils/answer/answer_leftright_keyboard.PNG' height='150'></img></p><p class='small'>In this example, the correct answer is the <b>LEFT arrow</b>.</p></div><p>Are you ready? <b>Press ENTER to start</b></p>","response":"enter","trial_type":"html-keyboard-response","trial_index":5,"time_elapsed":115504,"internal_node_id":"0.0-4.0-1.0","screen_height":657,"screen_width":1280,"browser":"chrome","browser_version":"103.0.0","mobile":false,"os":"Windows 10","vsync_rate":59.99,"participant_id":"SK_1"},{"rt":null,"stimulus":"<div style=\"font-size:60px;\">+</div>","response":null,"screen":"fixation","trial_type":"html-keyboard-response","trial_index":6,"time_elapsed":116431,"internal_node_id":"0.0-4.0-2.0-0.0","screen_height":657,"screen_width":1280,"browser":"chrome","browser_version":"103.0.0","mobile":false,"os":"Windows 10","vsync_rate":59.99,"participant_id":"SK_1","trial_duration":415},{"rt":767,"stimulus":"stimuli/Delboeuf_str-1.0_diff1.0.png","response":"arrowleft","screen":"Trial","block":"Delboeuf","correct_response":"arrowleft","trial_type":"image-keyboard-response","trial_index":7,"time_elapsed":117202,"internal_node_id":"0.0-4.0-2.0-1.0","screen_height":657,"screen_width":1280,"browser":"chrome","browser_version":"103.0.0","mobile":false,"os":"Windows 10","vsync_rate":59.99,"participant_id":"SK_1","prestimulus_duration":927,"correct":true,"type":"Delboeuf","illusion_strength":-1,"illusion_difference":1.0000000000000002,"block_number":1,"trial_number":1},{"rt":null,"stimulus":"<div style=\"font-size:60px;\">+</div>","response":null,"screen":"fixation","trial_type":"html-keyboard-response","trial_index":8,"time_elapsed":117786,"internal_node_id":"0.0-4.0-2.0-0.1","screen_height":657,"screen_width":1280,"browser":"chrome","browser_version":"103.0.0","mobile":false,"os":"Windows 10","vsync_rate":59.99,"participant_id":"SK_1","trial_duration":580},{"rt":721,"stimulus":"stimuli/Delboeuf_str-0.6_diff-1.0.png","response":"arrowright","screen":"Trial","block":"Delboeuf","correct_response":"arrowright","trial_type":"image-keyboard-response","trial_index":9,"time_elapsed":118508,"internal_node_id":"0.0-4.0-2.0-1.1","screen_height":657,"screen_width":1280,"browser":"chrome","browser_version":"103.0.0","mobile":false,"os":"Windows 10","vsync_rate":59.99,"participant_id":"SK_1","prestimulus_duration":584,"correct":true,"type":"Delboeuf","illusion_strength":-0.6,"illusion_difference":-1.0000000000000002,"block_number":1,"trial_number":2},{"rt":null,"stimulus":"<div style=\"font-size:60px;\">+</div>","response":null,"screen":"fixation","trial_type":"html-keyboard-response","trial_index":10,"time_elapsed":119456,"internal_node_id":"0.0-4.0-2.0-0.2","screen_height":657,"screen_width":1280,"browser":"chrome","browser_version":"103.0.0","mobile":false,"os":"Windows 10","vsync_rate":59.99,"participant_id":"SK_1","trial_duration":939},{"rt":701,"stimulus":"stimuli/Delboeuf_str0.2_diff-1.0.png","response":"arrowright","screen":"Trial","block":"Delboeuf","correct_response":"arrowright","trial_type":"image-keyboard-response","trial_index":11,"time_elapsed":120158,"internal_node_id":"0.0-4.0-2.0-1.2","screen_height":657,"screen_width":1280,"browser":"chrome","browser_version":"103.0.0","mobile":false,"os":"Windows 10","vsync_rate":59.99,"participant_id":"SK_1","prestimulus_duration":948,"correct":true,"type":"Delboeuf","illusion_strength":0.20000000000000018,"illusion_difference":-1.0000000000000002,"block_number":1,"trial_number":3},{"rt":null,"stimulus":"<div style=\"font-size:60px;\">+</div>","response":null,"screen":"fixation","trial_type":"html-keyboard-response","trial_index":12,"time_elapsed":120469,"internal_node_id":"0.0-4.0-2.0-0.3","screen_height":657,"screen_width":1280,"browser":"chrome","browser_version":"103.0.0","mobile":false,"os":"Windows 10","vsync_rate":59.99,"participant_id":"SK_1","trial_duration":306},{"rt":883,"stimulus":"stimuli/Delboeuf_str-0.6_diff0.1.png","response":"arrowleft","screen":"Trial","block":"Delboeuf","correct_response":"arrowleft","trial_type":"image-keyboard-response","trial_index":13,"time_elapsed":121353,"internal_node_id":"0.0-4.0-2.0-1.3","screen_height":657,"screen_width":1280,"browser":"chrome","browser_version":"103.0.0","mobile":false,"os":"Windows 10","vsync_rate":59.99,"participant_id":"SK_1","prestimulus_duration":311,"correct":true,"type":"Delboeuf","illusion_strength":-0.6,"illusion_difference":0.1,"block_number":1,"trial_number":4},{"rt":null,"stimulus":"<div style=\"font-size:60px;\">+</div>","response":null,"screen":"fixation","trial_type":"html-keyboard-response","trial_index":14,"time_elapsed":122027,"internal_node_id":"0.0-4.0-2.0-0.4","screen_height":657,"screen_width":1280,"browser":"chrome","browser_version":"103.0.0","mobile":false,"os":"Windows 10","vsync_rate":59.99,"participant_id":"SK_1","trial_duration":671},{"rt":623,"stimulus":"stimuli/Delboeuf_str-1.0_diff-0.1.png","response":"arrowleft","screen":"Trial","block":"Delboeuf","correct_response":"arrowright","trial_type":"image-keyboard-response","trial_index":15,"time_elapsed":122650,"internal_node_id":"0.0-4.0-2.0-1.4","screen_height":657,"screen_width":1280,"browser":"chrome","browser_version":"103.0.0","mobile":false,"os":"Windows 10","vsync_rate":59.99,"participant_id":"SK_1","prestimulus_duration":674,"correct":false,"type":"Delboeuf","illusion_strength":-1,"illusion_difference":-0.1,"block_number":1,"trial_number":5},{"rt":null,"stimulus":"<div style=\"font-size:60px;\">+</div>","response":null,"screen":"fixation","trial_type":"html-keyboard-response","trial_index":16,"time_elapsed":123047,"internal_node_id":"0.0-4.0-2.0-0.5","screen_height":657,"screen_width":1280,"browser":"chrome","browser_version":"103.0.0","mobile":false,"os":"Windows 10","vsync_rate":59.99,"participant_id":"SK_1","trial_duration":388},{"rt":683,"stimulus":"stimuli/Delboeuf_str0.6_diff-0.44.png","response":"arrowright","screen":"Trial","block":"Delboeuf","correct_response":"arrowright","trial_type":"image-keyboard-response","trial_index":17,"time_elapsed":123731,"internal_node_id":"0.0-4.0-2.0-1.5","screen_height":657,"screen_width":1280,"browser":"chrome","browser_version":"103.0.0","mobile":false,"os":"Windows 10","vsync_rate":59.99,"participant_id":"SK_1","prestimulus_duration":397,"correct":true,"type":"Delboeuf","illusion_strength":0.6000000000000001,"illusion_difference":-0.4375,"block_number":1,"trial_number":6},{"rt":null,"stimulus":"<div style=\"font-size:60px;\">+</div>","response":null,"screen":"fixation","trial_type":"html-keyboard-response","trial_index":18,"time_elapsed":124045,"internal_node_id":"0.0-4.0-2.0-0.6","screen_height":657,"screen_width":1280,"browser":"chrome","browser_version":"103.0.0","mobile":false,"os":"Windows 10","vsync_rate":59.99,"participant_id":"SK_1","trial_duration":299},{"rt":1217,"stimulus":"stimuli/Delboeuf_str-0.6_diff-0.1.png","response":"arrowright","screen":"Trial","block":"Delboeuf","correct_response":"arrowright","trial_type":"image-keyboard-response","trial_index":19,"time_elapsed":125263,"internal_node_id":"0.0-4.0-2.0-1.6","screen_height":657,"screen_width":1280,"browser":"chrome","browser_version":"103.0.0","mobile":false,"os":"Windows 10","vsync_rate":59.99,"participant_id":"SK_1","prestimulus_duration":314,"correct":true,"type":"Delboeuf","illusion_strength":-0.6,"illusion_difference":-0.1,"block_number":1,"trial_number":7},{"rt":null,"stimulus":"<div style=\"font-size:60px;\">+</div>","response":null,"screen":"fixation","trial_type":"html-keyboard-response","trial_index":20,"time_elapsed":126163,"internal_node_id":"0.0-4.0-2.0-0.7","screen_height":657,"screen_width":1280,"browser":"chrome","browser_version":"103.0.0","mobile":false,"os":"Windows 10","vsync_rate":59.99,"participant_id":"SK_1","trial_duration":898},{"rt":768,"stimulus":"stimuli/Delboeuf_str1.0_diff0.44.png","response":"arrowleft","screen":"Trial","block":"Delboeuf","correct_response":"arrowleft","trial_type":"image-keyboard-response","trial_index":21,"time_elapsed":126932,"internal_node_id":"0.0-4.0-2.0-1.7","screen_height":657,"screen_width":1280,"browser":"chrome","browser_version":"103.0.0","mobile":false,"os":"Windows 10","vsync_rate":59.99,"participant_id":"SK_1","prestimulus_duration":900,"correct":true,"type":"Delboeuf","illusion_strength":1,"illusion_difference":0.4375,"block_number":1,"trial_number":8},{"rt":null,"stimulus":"<div style=\"font-size:60px;\">+</div>","response":null,"screen":"fixation","trial_type":"html-keyboard-response","trial_index":22,"time_elapsed":127876,"internal_node_id":"0.0-4.0-2.0-0.8","screen_height":657,"screen_width":1280,"browser":"chrome","browser_version":"103.0.0","mobile":false,"os":"Windows 10","vsync_rate":59.99,"participant_id":"SK_1","trial_duration":932},{"rt":1199,"stimulus":"stimuli/Delboeuf_str0.6_diff-0.1.png","response":"arrowleft","screen":"Trial","block":"Delboeuf","correct_response":"arrowright","trial_type":"image-keyboard-response","trial_index":23,"time_elapsed":129076,"internal_node_id":"0.0-4.0-2.0-1.8","screen_height":657,"screen_width":1280,"browser":"chrome","browser_version":"103.0.0","mobile":false,"os":"Windows 10","vsync_rate":59.99,"participant_id":"SK_1","prestimulus_duration":944,"correct":false,"type":"Delboeuf","illusion_strength":0.6000000000000001,"illusion_difference":-0.1,"block_number":1,"trial_number":9},{"rt":null,"stimulus":"<div style=\"font-size:60px;\">+</div>","response":null,"screen":"fixation","trial_type":"html-keyboard-response","trial_index":24,"time_elapsed":129543,"internal_node_id":"0.0-4.0-2.0-0.9","screen_height":657,"screen_width":1280,"browser":"chrome","browser_version":"103.0.0","mobile":false,"os":"Windows 10","vsync_rate":59.99,"participant_id":"SK_1","trial_duration":451},{"rt":966,"stimulus":"stimuli/Delboeuf_str0.6_diff1.0.png","response":"arrowleft","screen":"Trial","block":"Delboeuf","correct_response":"arrowleft","trial_type":"image-keyboard-response","trial_index":25,"time_elapsed":130510,"internal_node_id":"0.0-4.0-2.0-1.9","screen_height":657,"screen_width":1280,"browser":"chrome","browser_version":"103.0.0","mobile":false,"os":"Windows 10","vsync_rate":59.99,"participant_id":"SK_1","prestimulus_duration":467,"correct":true,"type":"Delboeuf","illusion_strength":0.6000000000000001,"illusion_difference":1.0000000000000002,"block_number":1,"trial_number":10},{"rt":null,"stimulus":"<div style=\"font-size:60px;\">+</div>","response":null,"screen":"fixation","trial_type":"html-keyboard-response","trial_index":26,"time_elapsed":130960,"internal_node_id":"0.0-4.0-2.0-0.10","screen_height":657,"screen_width":1280,"browser":"chrome","browser_version":"103.0.0","mobile":false,"os":"Windows 10","vsync_rate":59.99,"participant_id":"SK_1","trial_duration":445},{"rt":1304,"stimulus":"stimuli/Delboeuf_str0.2_diff0.1.png","response":"arrowleft","screen":"Trial","block":"Delboeuf","correct_response":"arrowleft","trial_type":"image-keyboard-response","trial_index":27,"time_elapsed":132265,"internal_node_id":"0.0-4.0-2.0-1.10","screen_height":657,"screen_width":1280,"browser":"chrome","browser_version":"103.0.0","mobile":false,"os":"Windows 10","vsync_rate":59.99,"participant_id":"SK_1","prestimulus_duration":450,"correct":true,"type":"Delboeuf","illusion_strength":0.20000000000000018,"illusion_difference":0.1,"block_number":1,"trial_number":11},{"rt":null,"stimulus":"<div style=\"font-size:60px;\">+</div>","response":null,"screen":"fixation","trial_type":"html-keyboard-response","trial_index":28,"time_elapsed":132660,"internal_node_id":"0.0-4.0-2.0-0.11","screen_height":657,"screen_width":1280,"browser":"chrome","browser_version":"103.0.0","mobile":false,"os":"Windows 10","vsync_rate":59.99,"participant_id":"SK_1","trial_duration":389},{"rt":2833,"stimulus":"stimuli/Delboeuf_str1.0_diff-1.0.png","response":"arrowright","screen":"Trial","block":"Delboeuf","correct_response":"arrowright","trial_type":"image-keyboard-response","trial_index":29,"time_elapsed":135494,"internal_node_id":"0.0-4.0-2.0-1.11","screen_height":657,"screen_width":1280,"browser":"chrome","browser_version":"103.0.0","mobile":false,"os":"Windows 10","vsync_rate":59.99,"participant_id":"SK_1","prestimulus_duration":395,"correct":true,"type":"Delboeuf","illusion_strength":1,"illusion_difference":-1.0000000000000002,"block_number":1,"trial_number":12},{"rt":null,"stimulus":"<div style=\"font-size:60px;\">+</div>","response":null,"screen":"fixation","trial_type":"html-keyboard-response","trial_index":30,"time_elapsed":136135,"internal_node_id":"0.0-4.0-2.0-0.12","screen_height":657,"screen_width":1280,"browser":"chrome","browser_version":"103.0.0","mobile":false,"os":"Windows 10","vsync_rate":59.99,"participant_id":"SK_1","trial_duration":635},{"rt":1542,"stimulus":"stimuli/Delboeuf_str-1.0_diff0.1.png","response":"arrowleft","screen":"Trial","block":"Delboeuf","correct_response":"arrowleft","trial_type":"image-keyboard-response","trial_index":31,"time_elapsed":137679,"internal_node_id":"0.0-4.0-2.0-1.12","screen_height":657,"screen_width":1280,"browser":"chrome","browser_version":"103.0.0","mobile":false,"os":"Windows 10","vsync_rate":59.99,"participant_id":"SK_1","prestimulus_duration":641,"correct":true,"type":"Delboeuf","illusion_strength":-1,"illusion_difference":0.1,"block_number":1,"trial_number":13},{"rt":null,"stimulus":"<div style=\"font-size:60px;\">+</div>","response":null,"screen":"fixation","trial_type":"html-keyboard-response","trial_index":32,"time_elapsed":138394,"internal_node_id":"0.0-4.0-2.0-0.13","screen_height":657,"screen_width":1280,"browser":"chrome","browser_version":"103.0.0","mobile":false,"os":"Windows 10","vsync_rate":59.99,"participant_id":"SK_1","trial_duration":700},{"rt":701,"stimulus":"stimuli/Delboeuf_str0.2_diff1.0.png","response":"arrowleft","screen":"Trial","block":"Delboeuf","correct_response":"arrowleft","trial_type":"image-keyboard-response","trial_index":33,"time_elapsed":139096,"internal_node_id":"0.0-4.0-2.0-1.13","screen_height":657,"screen_width":1280,"browser":"chrome","browser_version":"103.0.0","mobile":false,"os":"Windows 10","vsync_rate":59.99,"participant_id":"SK_1","prestimulus_duration":715,"correct":true,"type":"Delboeuf","illusion_strength":0.20000000000000018,"illusion_difference":1.0000000000000002,"block_number":1,"trial_number":14},{"rt":null,"stimulus":"<div style=\"font-size:60px;\">+</div>","response":null,"screen":"fixation","trial_type":"html-keyboard-response","trial_index":34,"time_elapsed":139419,"internal_node_id":"0.0-4.0-2.0-0.14","screen_height":657,"screen_width":1280,"browser":"chrome","browser_version":"103.0.0","mobile":false,"os":"Windows 10","vsync_rate":59.99,"participant_id":"SK_1","trial_duration":310},{"rt":1065,"stimulus":"stimuli/Delboeuf_str0.2_diff-0.1.png","response":"arrowright","screen":"Trial","block":"Delboeuf","correct_response":"arrowright","trial_type":"image-keyboard-response","trial_index":35,"time_elapsed":140485,"internal_node_id":"0.0-4.0-2.0-1.14","screen_height":657,"screen_width":1280,"browser":"chrome","browser_version":"103.0.0","mobile":false,"os":"Windows 10","vsync_rate":59.99,"participant_id":"SK_1","prestimulus_duration":323,"correct":true,"type":"Delboeuf","illusion_strength":0.20000000000000018,"illusion_difference":-0.1,"block_number":1,"trial_number":15},{"rt":null,"stimulus":"<div style=\"font-size:60px;\">+</div>","response":null,"screen":"fixation","trial_type":"html-keyboard-response","trial_index":36,"time_elapsed":141113,"internal_node_id":"0.0-4.0-2.0-0.15","screen_height":657,"screen_width":1280,"browser":"chrome","browser_version":"103.0.0","mobile":false,"os":"Windows 10","vsync_rate":59.99,"participant_id":"SK_1","trial_duration":627},{"rt":1058,"stimulus":"stimuli/Delboeuf_str1.0_diff-0.1.png","response":"arrowleft","screen":"Trial","block":"Delboeuf","correct_response":"arrowright","trial_type":"image-keyboard-response","trial_index":37,"time_elapsed":142172,"internal_node_id":"0.0-4.0-2.0-1.15","screen_height":657,"screen_width":1280,"browser":"chrome","browser_version":"103.0.0","mobile":false,"os":"Windows 10","vsync_rate":59.99,"participant_id":"SK_1","prestimulus_duration":628,"correct":false,"type":"Delboeuf","illusion_strength":1,"illusion_difference":-0.1,"block_number":1,"trial_number":16},{"rt":null,"stimulus":"<div style=\"font-size:60px;\">+</div>","response":null,"screen":"fixation","trial_type":"html-keyboard-response","trial_index":38,"time_elapsed":142499,"internal_node_id":"0.0-4.0-2.0-0.16","screen_height":657,"screen_width":1280,"browser":"chrome","browser_version":"103.0.0","mobile":false,"os":"Windows 10","vsync_rate":59.99,"participant_id":"SK_1","trial_duration":324},{"rt":940,"stimulus":"stimuli/Delboeuf_str-0.2_diff-0.1.png","response":"arrowright","screen":"Trial","block":"Delboeuf","correct_response":"arrowright","trial_type":"image-keyboard-response","trial_index":39,"time_elapsed":143441,"internal_node_id":"0.0-4.0-2.0-1.16","screen_height":657,"screen_width":1280,"browser":"chrome","browser_version":"103.0.0","mobile":false,"os":"Windows 10","vsync_rate":59.99,"participant_id":"SK_1","prestimulus_duration":327,"correct":true,"type":"Delboeuf","illusion_strength":-0.19999999999999996,"illusion_difference":-0.1,"block_number":1,"trial_number":17},{"rt":null,"stimulus":"<div style=\"font-size:60px;\">+</div>","response":null,"screen":"fixation","trial_type":"html-keyboard-response","trial_index":40,"time_elapsed":144382,"internal_node_id":"0.0-4.0-2.0-0.17","screen_height":657,"screen_width":1280,"browser":"chrome","browser_version":"103.0.0","mobile":false,"os":"Windows 10","vsync_rate":59.99,"participant_id":"SK_1","trial_duration":938},{"rt":992,"stimulus":"stimuli/Delboeuf_str0.2_diff0.44.png","response":"arrowleft","screen":"Trial","block":"Delboeuf","correct_response":"arrowleft","trial_type":"image-keyboard-response","trial_index":41,"time_elapsed":145375,"internal_node_id":"0.0-4.0-2.0-1.17","screen_height":657,"screen_width":1280,"browser":"chrome","browser_version":"103.0.0","mobile":false,"os":"Windows 10","vsync_rate":59.99,"participant_id":"SK_1","prestimulus_duration":941,"correct":true,"type":"Delboeuf","illusion_strength":0.20000000000000018,"illusion_difference":0.4375,"block_number":1,"trial_number":18},{"rt":null,"stimulus":"<div style=\"font-size:60px;\">+</div>","response":null,"screen":"fixation","trial_type":"html-keyboard-response","trial_index":42,"time_elapsed":145722,"internal_node_id":"0.0-4.0-2.0-0.18","screen_height":657,"screen_width":1280,"browser":"chrome","browser_version":"103.0.0","mobile":false,"os":"Windows 10","vsync_rate":59.99,"participant_id":"SK_1","trial_duration":345},{"rt":810,"stimulus":"stimuli/Delboeuf_str-1.0_diff-0.44.png","response":"arrowright","screen":"Trial","block":"Delboeuf","correct_response":"arrowright","trial_type":"image-keyboard-response","trial_index":43,"time_elapsed":146533,"internal_node_id":"0.0-4.0-2.0-1.18","screen_height":657,"screen_width":1280,"browser":"chrome","browser_version":"103.0.0","mobile":false,"os":"Windows 10","vsync_rate":59.99,"participant_id":"SK_1","prestimulus_duration":347,"correct":true,"type":"Delboeuf","illusion_strength":-1,"illusion_difference":-0.4375,"block_number":1,"trial_number":19},{"rt":null,"stimulus":"<div style=\"font-size:60px;\">+</div>","response":null,"screen":"fixation","trial_type":"html-keyboard-response","trial_index":44,"time_elapsed":147467,"internal_node_id":"0.0-4.0-2.0-0.19","screen_height":657,"screen_width":1280,"browser":"chrome","browser_version":"103.0.0","mobile":false,"os":"Windows 10","vsync_rate":59.99,"participant_id":"SK_1","trial_duration":926},{"rt":791,"stimulus":"stimuli/Delboeuf_str-1.0_diff-1.0.png","response":"arrowright","screen":"Trial","block":"Delboeuf","correct_response":"arrowright","trial_type":"image-keyboard-response","trial_index":45,"time_elapsed":148259,"internal_node_id":"0.0-4.0-2.0-1.19","screen_height":657,"screen_width":1280,"browser":"chrome","browser_version":"103.0.0","mobile":false,"os":"Windows 10","vsync_rate":59.99,"participant_id":"SK_1","prestimulus_duration":934,"correct":true,"type":"Delboeuf","illusion_strength":-1,"illusion_difference":-1.0000000000000002,"block_number":1,"trial_number":20},{"rt":null,"stimulus":"<div style=\"font-size:60px;\">+</div>","response":null,"screen":"fixation","trial_type":"html-keyboard-response","trial_index":46,"time_elapsed":148779,"internal_node_id":"0.0-4.0-2.0-0.20","screen_height":657,"screen_width":1280,"browser":"chrome","browser_version":"103.0.0","mobile":false,"os":"Windows 10","vsync_rate":59.99,"participant_id":"SK_1","trial_duration":507},{"rt":709,"stimulus":"stimuli/Delboeuf_str-0.2_diff-1.0.png","response":"arrowright","screen":"Trial","block":"Delboeuf","correct_response":"arrowright","trial_type":"image-keyboard-response","trial_index":47,"time_elapsed":149488,"internal_node_id":"0.0-4.0-2.0-1.20","screen_height":657,"screen_width":1280,"browser":"chrome","browser_version":"103.0.0","mobile":false,"os":"Windows 10","vsync_rate":59.99,"participant_id":"SK_1","prestimulus_duration":520,"correct":true,"type":"Delboeuf","illusion_strength":-0.19999999999999996,"illusion_difference":-1.0000000000000002,"block_number":1,"trial_number":21},{"rt":null,"stimulus":"<div style=\"font-size:60px;\">+</div>","response":null,"screen":"fixation","trial_type":"html-keyboard-response","trial_index":48,"time_elapsed":149931,"internal_node_id":"0.0-4.0-2.0-0.21","screen_height":657,"screen_width":1280,"browser":"chrome","browser_version":"103.0.0","mobile":false,"os":"Windows 10","vsync_rate":59.99,"participant_id":"SK_1","trial_duration":436},{"rt":845,"stimulus":"stimuli/Delboeuf_str-0.2_diff-0.44.png","response":"arrowright","screen":"Trial","block":"Delboeuf","correct_response":"arrowright","trial_type":"image-keyboard-response","trial_index":49,"time_elapsed":150777,"internal_node_id":"0.0-4.0-2.0-1.21","screen_height":657,"screen_width":1280,"browser":"chrome","browser_version":"103.0.0","mobile":false,"os":"Windows 10","vsync_rate":59.99,"participant_id":"SK_1","prestimulus_duration":443,"correct":true,"type":"Delboeuf","illusion_strength":-0.19999999999999996,"illusion_difference":-0.4375,"block_number":1,"trial_number":22},{"rt":null,"stimulus":"<div style=\"font-size:60px;\">+</div>","response":null,"screen":"fixation","trial_type":"html-keyboard-response","trial_index":50,"time_elapsed":151594,"internal_node_id":"0.0-4.0-2.0-0.22","screen_height":657,"screen_width":1280,"browser":"chrome","browser_version":"103.0.0","mobile":false,"os":"Windows 10","vsync_rate":59.99,"participant_id":"SK_1","trial_duration":802},{"rt":1203,"stimulus":"stimuli/Delboeuf_str-0.2_diff0.1.png","response":"arrowleft","screen":"Trial","block":"Delboeuf","correct_response":"arrowleft","trial_type":"image-keyboard-response","trial_index":51,"time_elapsed":152798,"internal_node_id":"0.0-4.0-2.0-1.22","screen_height":657,"screen_width":1280,"browser":"chrome","browser_version":"103.0.0","mobile":false,"os":"Windows 10","vsync_rate":59.99,"participant_id":"SK_1","prestimulus_duration":817,"correct":true,"type":"Delboeuf","illusion_strength":-0.19999999999999996,"illusion_difference":0.1,"block_number":1,"trial_number":23},{"rt":null,"stimulus":"<div style=\"font-size:60px;\">+</div>","response":null,"screen":"fixation","trial_type":"html-keyboard-response","trial_index":52,"time_elapsed":153166,"internal_node_id":"0.0-4.0-2.0-0.23","screen_height":657,"screen_width":1280,"browser":"chrome","browser_version":"103.0.0","mobile":false,"os":"Windows 10","vsync_rate":59.99,"participant_id":"SK_1","trial_duration":366},{"rt":652,"stimulus":"stimuli/Delboeuf_str-0.6_diff-0.44.png","response":"arrowright","screen":"Trial","block":"Delboeuf","correct_response":"arrowright","trial_type":"image-keyboard-response","trial_index":53,"time_elapsed":153818,"internal_node_id":"0.0-4.0-2.0-1.23","screen_height":657,"screen_width":1280,"browser":"chrome","browser_version":"103.0.0","mobile":false,"os":"Windows 10","vsync_rate":59.99,"participant_id":"SK_1","prestimulus_duration":368,"correct":true,"type":"Delboeuf","illusion_strength":-0.6,"illusion_difference":-0.4375,"block_number":1,"trial_number":24},{"rt":null,"stimulus":"<div style=\"font-size:60px;\">+</div>","response":null,"screen":"fixation","trial_type":"html-keyboard-response","trial_index":54,"time_elapsed":154347,"internal_node_id":"0.0-4.0-2.0-0.24","screen_height":657,"screen_width":1280,"browser":"chrome","browser_version":"103.0.0","mobile":false,"os":"Windows 10","vsync_rate":59.99,"participant_id":"SK_1","trial_duration":515},{"rt":658,"stimulus":"stimuli/Delboeuf_str0.6_diff0.44.png","response":"arrowleft","screen":"Trial","block":"Delboeuf","correct_response":"arrowleft","trial_type":"image-keyboard-response","trial_index":55,"time_elapsed":155006,"internal_node_id":"0.0-4.0-2.0-1.24","screen_height":657,"screen_width":1280,"browser":"chrome","browser_version":"103.0.0","mobile":false,"os":"Windows 10","vsync_rate":59.99,"participant_id":"SK_1","prestimulus_duration":529,"correct":true,"type":"Delboeuf","illusion_strength":0.6000000000000001,"illusion_difference":0.4375,"block_number":1,"trial_number":25},{"rt":null,"stimulus":"<div style=\"font-size:60px;\">+</div>","response":null,"screen":"fixation","trial_type":"html-keyboard-response","trial_index":56,"time_elapsed":155894,"internal_node_id":"0.0-4.0-2.0-0.25","screen_height":657,"screen_width":1280,"browser":"chrome","browser_version":"103.0.0","mobile":false,"os":"Windows 10","vsync_rate":59.99,"participant_id":"SK_1","trial_duration":872},{"rt":1715,"stimulus":"stimuli/Delboeuf_str1.0_diff1.0.png","response":"arrowleft","screen":"Trial","block":"Delboeuf","correct_response":"arrowleft","trial_type":"image-keyboard-response","trial_index":57,"time_elapsed":157610,"internal_node_id":"0.0-4.0-2.0-1.25","screen_height":657,"screen_width":1280,"browser":"chrome","browser_version":"103.0.0","mobile":false,"os":"Windows 10","vsync_rate":59.99,"participant_id":"SK_1","prestimulus_duration":888,"correct":true,"type":"Delboeuf","illusion_strength":1,"illusion_difference":1.0000000000000002,"block_number":1,"trial_number":26},{"rt":null,"stimulus":"<div style=\"font-size:60px;\">+</div>","response":null,"screen":"fixation","trial_type":"html-keyboard-response","trial_index":58,"time_elapsed":158119,"internal_node_id":"0.0-4.0-2.0-0.26","screen_height":657,"screen_width":1280,"browser":"chrome","browser_version":"103.0.0","mobile":false,"os":"Windows 10","vsync_rate":59.99,"participant_id":"SK_1","trial_duration":494},{"rt":1274,"stimulus":"stimuli/Delboeuf_str-0.6_diff0.44.png","response":"arrowleft","screen":"Trial","block":"Delboeuf","correct_response":"arrowleft","trial_type":"image-keyboard-response","trial_index":59,"time_elapsed":159394,"internal_node_id":"0.0-4.0-2.0-1.26","screen_height":657,"screen_width":1280,"browser":"chrome","browser_version":"103.0.0","mobile":false,"os":"Windows 10","vsync_rate":59.99,"participant_id":"SK_1","prestimulus_duration":509,"correct":true,"type":"Delboeuf","illusion_strength":-0.6,"illusion_difference":0.4375,"block_number":1,"trial_number":27},{"rt":null,"stimulus":"<div style=\"font-size:60px;\">+</div>","response":null,"screen":"fixation","trial_type":"html-keyboard-response","trial_index":60,"time_elapsed":159770,"internal_node_id":"0.0-4.0-2.0-0.27","screen_height":657,"screen_width":1280,"browser":"chrome","browser_version":"103.0.0","mobile":false,"os":"Windows 10","vsync_rate":59.99,"participant_id":"SK_1","trial_duration":368},{"rt":841,"stimulus":"stimuli/Delboeuf_str0.6_diff-1.0.png","response":"arrowright","screen":"Trial","block":"Delboeuf","correct_response":"arrowright","trial_type":"image-keyboard-response","trial_index":61,"time_elapsed":160612,"internal_node_id":"0.0-4.0-2.0-1.27","screen_height":657,"screen_width":1280,"browser":"chrome","browser_version":"103.0.0","mobile":false,"os":"Windows 10","vsync_rate":59.99,"participant_id":"SK_1","prestimulus_duration":376,"correct":true,"type":"Delboeuf","illusion_strength":0.6000000000000001,"illusion_difference":-1.0000000000000002,"block_number":1,"trial_number":28},{"rt":null,"stimulus":"<div style=\"font-size:60px;\">+</div>","response":null,"screen":"fixation","trial_type":"html-keyboard-response","trial_index":62,"time_elapsed":161051,"internal_node_id":"0.0-4.0-2.0-0.28","screen_height":657,"screen_width":1280,"browser":"chrome","browser_version":"103.0.0","mobile":false,"os":"Windows 10","vsync_rate":59.99,"participant_id":"SK_1","trial_duration":434},{"rt":712,"stimulus":"stimuli/Delboeuf_str-0.6_diff1.0.png","response":"arrowleft","screen":"Trial","block":"Delboeuf","correct_response":"arrowleft","trial_type":"image-keyboard-response","trial_index":63,"time_elapsed":161764,"internal_node_id":"0.0-4.0-2.0-1.28","screen_height":657,"screen_width":1280,"browser":"chrome","browser_version":"103.0.0","mobile":false,"os":"Windows 10","vsync_rate":59.99,"participant_id":"SK_1","prestimulus_duration":439,"correct":true,"type":"Delboeuf","illusion_strength":-0.6,"illusion_difference":1.0000000000000002,"block_number":1,"trial_number":29},{"rt":null,"stimulus":"<div style=\"font-size:60px;\">+</div>","response":null,"screen":"fixation","trial_type":"html-keyboard-response","trial_index":64,"time_elapsed":162544,"internal_node_id":"0.0-4.0-2.0-0.29","screen_height":657,"screen_width":1280,"browser":"chrome","browser_version":"103.0.0","mobile":false,"os":"Windows 10","vsync_rate":59.99,"participant_id":"SK_1","trial_duration":765},{"rt":823,"stimulus":"stimuli/Delboeuf_str1.0_diff0.1.png","response":"arrowright","screen":"Trial","block":"Delboeuf","correct_response":"arrowleft","trial_type":"image-keyboard-response","trial_index":65,"time_elapsed":163368,"internal_node_id":"0.0-4.0-2.0-1.29","screen_height":657,"screen_width":1280,"browser":"chrome","browser_version":"103.0.0","mobile":false,"os":"Windows 10","vsync_rate":59.99,"participant_id":"SK_1","prestimulus_duration":780,"correct":false,"type":"Delboeuf","illusion_strength":1,"illusion_difference":0.1,"block_number":1,"trial_number":30},{"rt":null,"stimulus":"<div style=\"font-size:60px;\">+</div>","response":null,"screen":"fixation","trial_type":"html-keyboard-response","trial_index":66,"time_elapsed":163896,"internal_node_id":"0.0-4.0-2.0-0.30","screen_height":657,"screen_width":1280,"browser":"chrome","browser_version":"103.0.0","mobile":false,"os":"Windows 10","vsync_rate":59.99,"participant_id":"SK_1","trial_duration":512},{"rt":1682,"stimulus":"stimuli/Delboeuf_str-0.2_diff0.44.png","response":"arrowleft","screen":"Trial","block":"Delboeuf","correct_response":"arrowleft","trial_type":"image-keyboard-response","trial_index":67,"time_elapsed":165579,"internal_node_id":"0.0-4.0-2.0-1.30","screen_height":657,"screen_width":1280,"browser":"chrome","browser_version":"103.0.0","mobile":false,"os":"Windows 10","vsync_rate":59.99,"participant_id":"SK_1","prestimulus_duration":528,"correct":true,"type":"Delboeuf","illusion_strength":-0.19999999999999996,"illusion_difference":0.4375,"block_number":1,"trial_number":31},{"rt":null,"stimulus":"<div style=\"font-size:60px;\">+</div>","response":null,"screen":"fixation","trial_type":"html-keyboard-response","trial_index":68,"time_elapsed":166314,"internal_node_id":"0.0-4.0-2.0-0.31","screen_height":657,"screen_width":1280,"browser":"chrome","browser_version":"103.0.0","mobile":false,"os":"Windows 10","vsync_rate":59.99,"participant_id":"SK_1","trial_duration":722},{"rt":2064,"stimulus":"stimuli/Delboeuf_str-0.2_diff1.0.png","response":"arrowleft","screen":"Trial","block":"Delboeuf","correct_response":"arrowleft","trial_type":"image-keyboard-response","trial_index":69,"time_elapsed":168379,"internal_node_id":"0.0-4.0-2.0-1.31","screen_height":657,"screen_width":1280,"browser":"chrome","browser_version":"103.0.0","mobile":false,"os":"Windows 10","vsync_rate":59.99,"participant_id":"SK_1","prestimulus_duration":735,"correct":true,"type":"Delboeuf","illusion_strength":-0.19999999999999996,"illusion_difference":1.0000000000000002,"block_number":1,"trial_number":32},{"rt":null,"stimulus":"<div style=\"font-size:60px;\">+</div>","response":null,"screen":"fixation","trial_type":"html-keyboard-response","trial_index":70,"time_elapsed":169239,"internal_node_id":"0.0-4.0-2.0-0.32","screen_height":657,"screen_width":1280,"browser":"chrome","browser_version":"103.0.0","mobile":false,"os":"Windows 10","vsync_rate":59.99,"participant_id":"SK_1","trial_duration":845},{"rt":1394,"stimulus":"stimuli/Delboeuf_str0.2_diff-0.44.png","response":"arrowright","screen":"Trial","block":"Delboeuf","correct_response":"arrowright","trial_type":"image-keyboard-response","trial_index":71,"time_elapsed":170634,"internal_node_id":"0.0-4.0-2.0-1.32","screen_height":657,"screen_width":1280,"browser":"chrome","browser_version":"103.0.0","mobile":false,"os":"Windows 10","vsync_rate":59.99,"participant_id":"SK_1","prestimulus_duration":860,"correct":true,"type":"Delboeuf","illusion_strength":0.20000000000000018,"illusion_difference":-0.4375,"block_number":1,"trial_number":33},{"rt":null,"stimulus":"<div style=\"font-size:60px;\">+</div>","response":null,"screen":"fixation","trial_type":"html-keyboard-response","trial_index":72,"time_elapsed":171320,"internal_node_id":"0.0-4.0-2.0-0.33","screen_height":657,"screen_width":1280,"browser":"chrome","browser_version":"103.0.0","mobile":false,"os":"Windows 10","vsync_rate":59.99,"participant_id":"SK_1","trial_duration":685},{"rt":1088,"stimulus":"stimuli/Delboeuf_str-1.0_diff0.44.png","response":"arrowleft","screen":"Trial","block":"Delboeuf","correct_response":"arrowleft","trial_type":"image-keyboard-response","trial_index":73,"time_elapsed":172409,"internal_node_id":"0.0-4.0-2.0-1.33","screen_height":657,"screen_width":1280,"browser":"chrome","browser_version":"103.0.0","mobile":false,"os":"Windows 10","vsync_rate":59.99,"participant_id":"SK_1","prestimulus_duration":686,"correct":true,"type":"Delboeuf","illusion_strength":-1,"illusion_difference":0.4375,"block_number":1,"trial_number":34},{"rt":null,"stimulus":"<div style=\"font-size:60px;\">+</div>","response":null,"screen":"fixation","trial_type":"html-keyboard-response","trial_index":74,"time_elapsed":172816,"internal_node_id":"0.0-4.0-2.0-0.34","screen_height":657,"screen_width":1280,"browser":"chrome","browser_version":"103.0.0","mobile":false,"os":"Windows 10","vsync_rate":59.99,"participant_id":"SK_1","trial_duration":393},{"rt":1703,"stimulus":"stimuli/Delboeuf_str1.0_diff-0.44.png","response":"arrowright","screen":"Trial","block":"Delboeuf","correct_response":"arrowright","trial_type":"image-keyboard-response","trial_index":75,"time_elapsed":174520,"internal_node_id":"0.0-4.0-2.0-1.34","screen_height":657,"screen_width":1280,"browser":"chrome","browser_version":"103.0.0","mobile":false,"os":"Windows 10","vsync_rate":59.99,"participant_id":"SK_1","prestimulus_duration":407,"correct":true,"type":"Delboeuf","illusion_strength":1,"illusion_difference":-0.4375,"block_number":1,"trial_number":35},{"rt":null,"stimulus":"<div style=\"font-size:60px;\">+</div>","response":null,"screen":"fixation","trial_type":"html-keyboard-response","trial_index":76,"time_elapsed":174976,"internal_node_id":"0.0-4.0-2.0-0.35","screen_height":657,"screen_width":1280,"browser":"chrome","browser_version":"103.0.0","mobile":false,"os":"Windows 10","vsync_rate":59.99,"participant_id":"SK_1","trial_duration":440},{"rt":1649,"stimulus":"stimuli/Delboeuf_str0.6_diff0.1.png","response":"arrowright","screen":"Trial","block":"Delboeuf","correct_response":"arrowleft","trial_type":"image-keyboard-response","trial_index":77,"time_elapsed":176625,"internal_node_id":"0.0-4.0-2.0-1.35","screen_height":657,"screen_width":1280,"browser":"chrome","browser_version":"103.0.0","mobile":false,"os":"Windows 10","vsync_rate":59.99,"participant_id":"SK_1","prestimulus_duration":456,"correct":false,"type":"Delboeuf","illusion_strength":0.6000000000000001,"illusion_difference":0.1,"block_number":1,"trial_number":36},{"rt":1537,"stimulus":"<p>Your score for this illusion is <p style=\"color: black; font-size: 48px; font-weight: bold;\">3718</p><hr><hr><p>Can you do better in the next illusion?</p>","response":0,"screen":"block_results","trial_type":"html-button-response","trial_index":78,"time_elapsed":178167,"internal_node_id":"0.0-4.0-3.0","screen_height":657,"screen_width":1280,"browser":"chrome","browser_version":"103.0.0","mobile":false,"os":"Windows 10","vsync_rate":59.99,"participant_id":"SK_1"},{"success":true,"timeout":false,"failed_images":[],"failed_audio":[],"failed_video":[],"trial_type":"preload","trial_index":79,"time_elapsed":178170,"internal_node_id":"0.0-5.0-0.0","screen_height":657,"screen_width":1280,"browser":"chrome","browser_version":"103.0.0","mobile":false,"os":"Windows 10","vsync_rate":59.99,"participant_id":"SK_1"},{"rt":3877,"stimulus":"<p><b>Part 2</b></p><p>In this part, two small grey rectangles will appear one above the other.</p><p>Your task is to select which rectangle is <b>lighter</b> as fast as you can, without making errors.</p><p>Don't get distracted by the surrounding background!</p><p>Press <b>the UP or the DOWN arrow</b> to indicate where is the <b>lighter rectangle.</b></p><div style='float: center'><img src='utils/stimuli_demo/Contrast_Demo.png' height='300'></img><p><img src='utils/answer/answer_updown_keyboard.PNG' height='150'></img></p><p class='small'>In this example, the correct answer is the <b>UP arrow</b>.</p></div><p>Are you ready? <b>Press ENTER to start</b></p>","response":"enter","trial_type":"html-keyboard-response","trial_index":80,"time_elapsed":182048,"internal_node_id":"0.0-5.0-1.0","screen_height":657,"screen_width":1280,"browser":"chrome","browser_version":"103.0.0","mobile":false,"os":"Windows 10","vsync_rate":59.99,"participant_id":"SK_1"},{"rt":null,"stimulus":"<div style=\"font-size:60px;\">+</div>","response":null,"screen":"fixation","trial_type":"html-keyboard-response","trial_index":81,"time_elapsed":183163,"internal_node_id":"0.0-5.0-2.0-0.0","screen_height":657,"screen_width":1280,"browser":"chrome","browser_version":"103.0.0","mobile":false,"os":"Windows 10","vsync_rate":59.99,"participant_id":"SK_1","trial_duration":595},{"rt":1360,"stimulus":"stimuli/Contrast_str8.0_diff-22.5.png","response":"arrowdown","screen":"Trial","block":"Contrast","correct_response":"arrowdown","trial_type":"image-keyboard-response","trial_index":82,"time_elapsed":184525,"internal_node_id":"0.0-5.0-2.0-1.0","screen_height":657,"screen_width":1280,"browser":"chrome","browser_version":"103.0.0","mobile":false,"os":"Windows 10","vsync_rate":59.99,"participant_id":"SK_1","prestimulus_duration":1115,"correct":true,"type":"Contrast","illusion_strength":8,"illusion_difference":-22.5,"block_number":2,"trial_number":1},{"rt":null,"stimulus":"<div style=\"font-size:60px;\">+</div>","response":null,"screen":"fixation","trial_type":"html-keyboard-response","trial_index":83,"time_elapsed":185406,"internal_node_id":"0.0-5.0-2.0-0.1","screen_height":657,"screen_width":1280,"browser":"chrome","browser_version":"103.0.0","mobile":false,"os":"Windows 10","vsync_rate":59.99,"participant_id":"SK_1","trial_duration":874},{"rt":861,"stimulus":"stimuli/Contrast_str40.0_diff35.0.png","response":"arrowup","screen":"Trial","block":"Contrast","correct_response":"arrowup","trial_type":"image-keyboard-response","trial_index":84,"time_elapsed":186268,"internal_node_id":"0.0-5.0-2.0-1.1","screen_height":657,"screen_width":1280,"browser":"chrome","browser_version":"103.0.0","mobile":false,"os":"Windows 10","vsync_rate":59.99,"participant_id":"SK_1","prestimulus_duration":881,"correct":true,"type":"Contrast","illusion_strength":40,"illusion_difference":35,"block_number":2,"trial_number":2},{"rt":null,"stimulus":"<div style=\"font-size:60px;\">+</div>","response":null,"screen":"fixation","trial_type":"html-keyboard-response","trial_index":85,"time_elapsed":186621,"internal_node_id":"0.0-5.0-2.0-0.2","screen_height":657,"screen_width":1280,"browser":"chrome","browser_version":"103.0.0","mobile":false,"os":"Windows 10","vsync_rate":59.99,"participant_id":"SK_1","trial_duration":350},{"rt":4827,"stimulus":"stimuli/Contrast_str-24.0_diff22.5.png","response":"arrowup","screen":"Trial","block":"Contrast","correct_response":"arrowup","trial_type":"image-keyboard-response","trial_index":86,"time_elapsed":191449,"internal_node_id":"0.0-5.0-2.0-1.2","screen_height":657,"screen_width":1280,"browser":"chrome","browser_version":"103.0.0","mobile":false,"os":"Windows 10","vsync_rate":59.99,"participant_id":"SK_1","prestimulus_duration":353,"correct":true,"type":"Contrast","illusion_strength":-24,"illusion_difference":22.5,"block_number":2,"trial_number":3},{"rt":null,"stimulus":"<div style=\"font-size:60px;\">+</div>","response":null,"screen":"fixation","trial_type":"html-keyboard-response","trial_index":87,"time_elapsed":192374,"internal_node_id":"0.0-5.0-2.0-0.3","screen_height":657,"screen_width":1280,"browser":"chrome","browser_version":"103.0.0","mobile":false,"os":"Windows 10","vsync_rate":59.99,"participant_id":"SK_1","trial_duration":919},{"rt":1007,"stimulus":"stimuli/Contrast_str-24.0_diff35.0.png","response":"arrowup","screen":"Trial","block":"Contrast","correct_response":"arrowup","trial_type":"image-keyboard-response","trial_index":88,"time_elapsed":193382,"internal_node_id":"0.0-5.0-2.0-1.3","screen_height":657,"screen_width":1280,"browser":"chrome","browser_version":"103.0.0","mobile":false,"os":"Windows 10","vsync_rate":59.99,"participant_id":"SK_1","prestimulus_duration":925,"correct":true,"type":"Contrast","illusion_strength":-24,"illusion_difference":35,"block_number":2,"trial_number":4},{"rt":null,"stimulus":"<div style=\"font-size:60px;\">+</div>","response":null,"screen":"fixation","trial_type":"html-keyboard-response","trial_index":89,"time_elapsed":193979,"internal_node_id":"0.0-5.0-2.0-0.4","screen_height":657,"screen_width":1280,"browser":"chrome","browser_version":"103.0.0","mobile":false,"os":"Windows 10","vsync_rate":59.99,"participant_id":"SK_1","trial_duration":588},{"rt":837,"stimulus":"stimuli/Contrast_str24.0_diff-15.0.png","response":"arrowdown","screen":"Trial","block":"Contrast","correct_response":"arrowdown","trial_type":"image-keyboard-response","trial_index":90,"time_elapsed":194816,"internal_node_id":"0.0-5.0-2.0-1.4","screen_height":657,"screen_width":1280,"browser":"chrome","browser_version":"103.0.0","mobile":false,"os":"Windows 10","vsync_rate":59.99,"participant_id":"SK_1","prestimulus_duration":597,"correct":true,"type":"Contrast","illusion_strength":24,"illusion_difference":-15,"block_number":2,"trial_number":5},{"rt":null,"stimulus":"<div style=\"font-size:60px;\">+</div>","response":null,"screen":"fixation","trial_type":"html-keyboard-response","trial_index":91,"time_elapsed":195315,"internal_node_id":"0.0-5.0-2.0-0.5","screen_height":657,"screen_width":1280,"browser":"chrome","browser_version":"103.0.0","mobile":false,"os":"Windows 10","vsync_rate":59.99,"participant_id":"SK_1","trial_duration":491},{"rt":789,"stimulus":"stimuli/Contrast_str-24.0_diff15.0.png","response":"arrowup","screen":"Trial","block":"Contrast","correct_response":"arrowup","trial_type":"image-keyboard-response","trial_index":92,"time_elapsed":196105,"internal_node_id":"0.0-5.0-2.0-1.5","screen_height":657,"screen_width":1280,"browser":"chrome","browser_version":"103.0.0","mobile":false,"os":"Windows 10","vsync_rate":59.99,"participant_id":"SK_1","prestimulus_duration":499,"correct":true,"type":"Contrast","illusion_strength":-24,"illusion_difference":15,"block_number":2,"trial_number":6},{"rt":null,"stimulus":"<div style=\"font-size:60px;\">+</div>","response":null,"screen":"fixation","trial_type":"html-keyboard-response","trial_index":93,"time_elapsed":196577,"internal_node_id":"0.0-5.0-2.0-0.6","screen_height":657,"screen_width":1280,"browser":"chrome","browser_version":"103.0.0","mobile":false,"os":"Windows 10","vsync_rate":59.99,"participant_id":"SK_1","trial_duration":457},{"rt":961,"stimulus":"stimuli/Contrast_str8.0_diff22.5.png","response":"arrowup","screen":"Trial","block":"Contrast","correct_response":"arrowup","trial_type":"image-keyboard-response","trial_index":94,"time_elapsed":197539,"internal_node_id":"0.0-5.0-2.0-1.6","screen_height":657,"screen_width":1280,"browser":"chrome","browser_version":"103.0.0","mobile":false,"os":"Windows 10","vsync_rate":59.99,"participant_id":"SK_1","prestimulus_duration":472,"correct":true,"type":"Contrast","illusion_strength":8,"illusion_difference":22.5,"block_number":2,"trial_number":7},{"rt":null,"stimulus":"<div style=\"font-size:60px;\">+</div>","response":null,"screen":"fixation","trial_type":"html-keyboard-response","trial_index":95,"time_elapsed":198339,"internal_node_id":"0.0-5.0-2.0-0.7","screen_height":657,"screen_width":1280,"browser":"chrome","browser_version":"103.0.0","mobile":false,"os":"Windows 10","vsync_rate":59.99,"participant_id":"SK_1","trial_duration":793},{"rt":2437,"stimulus":"stimuli/Contrast_str-24.0_diff-15.0.png","response":"arrowdown","screen":"Trial","block":"Contrast","correct_response":"arrowdown","trial_type":"image-keyboard-response","trial_index":96,"time_elapsed":200776,"internal_node_id":"0.0-5.0-2.0-1.7","screen_height":657,"screen_width":1280,"browser":"chrome","browser_version":"103.0.0","mobile":false,"os":"Windows 10","vsync_rate":59.99,"participant_id":"SK_1","prestimulus_duration":800,"correct":true,"type":"Contrast","illusion_strength":-24,"illusion_difference":-15,"block_number":2,"trial_number":8},{"rt":null,"stimulus":"<div style=\"font-size:60px;\">+</div>","response":null,"screen":"fixation","trial_type":"html-keyboard-response","trial_index":97,"time_elapsed":201481,"internal_node_id":"0.0-5.0-2.0-0.8","screen_height":657,"screen_width":1280,"browser":"chrome","browser_version":"103.0.0","mobile":false,"os":"Windows 10","vsync_rate":59.99,"participant_id":"SK_1","trial_duration":691},{"rt":834,"stimulus":"stimuli/Contrast_str40.0_diff15.0.png","response":"arrowup","screen":"Trial","block":"Contrast","correct_response":"arrowup","trial_type":"image-keyboard-response","trial_index":98,"time_elapsed":202315,"internal_node_id":"0.0-5.0-2.0-1.8","screen_height":657,"screen_width":1280,"browser":"chrome","browser_version":"103.0.0","mobile":false,"os":"Windows 10","vsync_rate":59.99,"participant_id":"SK_1","prestimulus_duration":705,"correct":true,"type":"Contrast","illusion_strength":40,"illusion_difference":15,"block_number":2,"trial_number":9},{"rt":null,"stimulus":"<div style=\"font-size:60px;\">+</div>","response":null,"screen":"fixation","trial_type":"html-keyboard-response","trial_index":99,"time_elapsed":203210,"internal_node_id":"0.0-5.0-2.0-0.9","screen_height":657,"screen_width":1280,"browser":"chrome","browser_version":"103.0.0","mobile":false,"os":"Windows 10","vsync_rate":59.99,"participant_id":"SK_1","trial_duration":879},{"rt":824,"stimulus":"stimuli/Contrast_str-24.0_diff-35.0.png","response":"arrowdown","screen":"Trial","block":"Contrast","correct_response":"arrowdown","trial_type":"image-keyboard-response","trial_index":100,"time_elapsed":204035,"internal_node_id":"0.0-5.0-2.0-1.9","screen_height":657,"screen_width":1280,"browser":"chrome","browser_version":"103.0.0","mobile":false,"os":"Windows 10","vsync_rate":59.99,"participant_id":"SK_1","prestimulus_duration":895,"correct":true,"type":"Contrast","illusion_strength":-24,"illusion_difference":-35,"block_number":2,"trial_number":10},{"rt":null,"stimulus":"<div style=\"font-size:60px;\">+</div>","response":null,"screen":"fixation","trial_type":"html-keyboard-response","trial_index":101,"time_elapsed":205033,"internal_node_id":"0.0-5.0-2.0-0.10","screen_height":657,"screen_width":1280,"browser":"chrome","browser_version":"103.0.0","mobile":false,"os":"Windows 10","vsync_rate":59.99,"participant_id":"SK_1","trial_duration":990},{"rt":850,"stimulus":"stimuli/Contrast_str-8.0_diff15.0.png","response":"arrowup","screen":"Trial","block":"Contrast","correct_response":"arrowup","trial_type":"image-keyboard-response","trial_index":102,"time_elapsed":205884,"internal_node_id":"0.0-5.0-2.0-1.10","screen_height":657,"screen_width":1280,"browser":"chrome","browser_version":"103.0.0","mobile":false,"os":"Windows 10","vsync_rate":59.99,"participant_id":"SK_1","prestimulus_duration":998,"correct":true,"type":"Contrast","illusion_strength":-8,"illusion_difference":15,"block_number":2,"trial_number":11},{"rt":null,"stimulus":"<div style=\"font-size:60px;\">+</div>","response":null,"screen":"fixation","trial_type":"html-keyboard-response","trial_index":103,"time_elapsed":206853,"internal_node_id":"0.0-5.0-2.0-0.11","screen_height":657,"screen_width":1280,"browser":"chrome","browser_version":"103.0.0","mobile":false,"os":"Windows 10","vsync_rate":59.99,"participant_id":"SK_1","trial_duration":960},{"rt":863,"stimulus":"stimuli/Contrast_str-8.0_diff22.5.png","response":"arrowup","screen":"Trial","block":"Contrast","correct_response":"arrowup","trial_type":"image-keyboard-response","trial_index":104,"time_elapsed":207716,"internal_node_id":"0.0-5.0-2.0-1.11","screen_height":657,"screen_width":1280,"browser":"chrome","browser_version":"103.0.0","mobile":false,"os":"Windows 10","vsync_rate":59.99,"participant_id":"SK_1","prestimulus_duration":969,"correct":true,"type":"Contrast","illusion_strength":-8,"illusion_difference":22.5,"block_number":2,"trial_number":12},{"rt":null,"stimulus":"<div style=\"font-size:60px;\">+</div>","response":null,"screen":"fixation","trial_type":"html-keyboard-response","trial_index":105,"time_elapsed":208225,"internal_node_id":"0.0-5.0-2.0-0.12","screen_height":657,"screen_width":1280,"browser":"chrome","browser_version":"103.0.0","mobile":false,"os":"Windows 10","vsync_rate":59.99,"participant_id":"SK_1","trial_duration":508},{"rt":936,"stimulus":"stimuli/Contrast_str8.0_diff15.0.png","response":"arrowup","screen":"Trial","block":"Contrast","correct_response":"arrowup","trial_type":"image-keyboard-response","trial_index":106,"time_elapsed":209162,"internal_node_id":"0.0-5.0-2.0-1.12","screen_height":657,"screen_width":1280,"browser":"chrome","browser_version":"103.0.0","mobile":false,"os":"Windows 10","vsync_rate":59.99,"participant_id":"SK_1","prestimulus_duration":509,"correct":true,"type":"Contrast","illusion_strength":8,"illusion_difference":15,"block_number":2,"trial_number":13},{"rt":null,"stimulus":"<div style=\"font-size:60px;\">+</div>","response":null,"screen":"fixation","trial_type":"html-keyboard-response","trial_index":107,"time_elapsed":209991,"internal_node_id":"0.0-5.0-2.0-0.13","screen_height":657,"screen_width":1280,"browser":"chrome","browser_version":"103.0.0","mobile":false,"os":"Windows 10","vsync_rate":59.99,"participant_id":"SK_1","trial_duration":825},{"rt":869,"stimulus":"stimuli/Contrast_str40.0_diff-15.0.png","response":"arrowdown","screen":"Trial","block":"Contrast","correct_response":"arrowdown","trial_type":"image-keyboard-response","trial_index":108,"time_elapsed":210861,"internal_node_id":"0.0-5.0-2.0-1.13","screen_height":657,"screen_width":1280,"browser":"chrome","browser_version":"103.0.0","mobile":false,"os":"Windows 10","vsync_rate":59.99,"participant_id":"SK_1","prestimulus_duration":829,"correct":true,"type":"Contrast","illusion_strength":40,"illusion_difference":-15,"block_number":2,"trial_number":14},{"rt":null,"stimulus":"<div style=\"font-size:60px;\">+</div>","response":null,"screen":"fixation","trial_type":"html-keyboard-response","trial_index":109,"time_elapsed":211689,"internal_node_id":"0.0-5.0-2.0-0.14","screen_height":657,"screen_width":1280,"browser":"chrome","browser_version":"103.0.0","mobile":false,"os":"Windows 10","vsync_rate":59.99,"participant_id":"SK_1","trial_duration":823},{"rt":717,"stimulus":"stimuli/Contrast_str24.0_diff35.0.png","response":"arrowup","screen":"Trial","block":"Contrast","correct_response":"arrowup","trial_type":"image-keyboard-response","trial_index":110,"time_elapsed":212406,"internal_node_id":"0.0-5.0-2.0-1.14","screen_height":657,"screen_width":1280,"browser":"chrome","browser_version":"103.0.0","mobile":false,"os":"Windows 10","vsync_rate":59.99,"participant_id":"SK_1","prestimulus_duration":828,"correct":true,"type":"Contrast","illusion_strength":24,"illusion_difference":35,"block_number":2,"trial_number":15},{"rt":null,"stimulus":"<div style=\"font-size:60px;\">+</div>","response":null,"screen":"fixation","trial_type":"html-keyboard-response","trial_index":111,"time_elapsed":212717,"internal_node_id":"0.0-5.0-2.0-0.15","screen_height":657,"screen_width":1280,"browser":"chrome","browser_version":"103.0.0","mobile":false,"os":"Windows 10","vsync_rate":59.99,"participant_id":"SK_1","trial_duration":300},{"rt":1152,"stimulus":"stimuli/Contrast_str-40.0_diff-15.0.png","response":"arrowdown","screen":"Trial","block":"Contrast","correct_response":"arrowdown","trial_type":"image-keyboard-response","trial_index":112,"time_elapsed":213870,"internal_node_id":"0.0-5.0-2.0-1.15","screen_height":657,"screen_width":1280,"browser":"chrome","browser_version":"103.0.0","mobile":false,"os":"Windows 10","vsync_rate":59.99,"participant_id":"SK_1","prestimulus_duration":311,"correct":true,"type":"Contrast","illusion_strength":-40,"illusion_difference":-15,"block_number":2,"trial_number":16},{"rt":null,"stimulus":"<div style=\"font-size:60px;\">+</div>","response":null,"screen":"fixation","trial_type":"html-keyboard-response","trial_index":113,"time_elapsed":214369,"internal_node_id":"0.0-5.0-2.0-0.16","screen_height":657,"screen_width":1280,"browser":"chrome","browser_version":"103.0.0","mobile":false,"os":"Windows 10","vsync_rate":59.99,"participant_id":"SK_1","trial_duration":491},{"rt":2072,"stimulus":"stimuli/Contrast_str-40.0_diff-22.5.png","response":"arrowup","screen":"Trial","block":"Contrast","correct_response":"arrowdown","trial_type":"image-keyboard-response","trial_index":114,"time_elapsed":216442,"internal_node_id":"0.0-5.0-2.0-1.16","screen_height":657,"screen_width":1280,"browser":"chrome","browser_version":"103.0.0","mobile":false,"os":"Windows 10","vsync_rate":59.99,"participant_id":"SK_1","prestimulus_duration":499,"correct":false,"type":"Contrast","illusion_strength":-40,"illusion_difference":-22.5,"block_number":2,"trial_number":17},{"rt":null,"stimulus":"<div style=\"font-size:60px;\">+</div>","response":null,"screen":"fixation","trial_type":"html-keyboard-response","trial_index":115,"time_elapsed":216712,"internal_node_id":"0.0-5.0-2.0-0.17","screen_height":657,"screen_width":1280,"browser":"chrome","browser_version":"103.0.0","mobile":false,"os":"Windows 10","vsync_rate":59.99,"participant_id":"SK_1","trial_duration":255},{"rt":1041,"stimulus":"stimuli/Contrast_str-40.0_diff22.5.png","response":"arrowup","screen":"Trial","block":"Contrast","correct_response":"arrowup","trial_type":"image-keyboard-response","trial_index":116,"time_elapsed":217754,"internal_node_id":"0.0-5.0-2.0-1.17","screen_height":657,"screen_width":1280,"browser":"chrome","browser_version":"103.0.0","mobile":false,"os":"Windows 10","vsync_rate":59.99,"participant_id":"SK_1","prestimulus_duration":270,"correct":true,"type":"Contrast","illusion_strength":-40,"illusion_difference":22.5,"block_number":2,"trial_number":18},{"rt":null,"stimulus":"<div style=\"font-size:60px;\">+</div>","response":null,"screen":"fixation","trial_type":"html-keyboard-response","trial_index":117,"time_elapsed":218672,"internal_node_id":"0.0-5.0-2.0-0.18","screen_height":657,"screen_width":1280,"browser":"chrome","browser_version":"103.0.0","mobile":false,"os":"Windows 10","vsync_rate":59.99,"participant_id":"SK_1","trial_duration":909},{"rt":948,"stimulus":"stimuli/Contrast_str-24.0_diff-22.5.png","response":"arrowdown","screen":"Trial","block":"Contrast","correct_response":"arrowdown","trial_type":"image-keyboard-response","trial_index":118,"time_elapsed":219621,"internal_node_id":"0.0-5.0-2.0-1.18","screen_height":657,"screen_width":1280,"browser":"chrome","browser_version":"103.0.0","mobile":false,"os":"Windows 10","vsync_rate":59.99,"participant_id":"SK_1","prestimulus_duration":918,"correct":true,"type":"Contrast","illusion_strength":-24,"illusion_difference":-22.5,"block_number":2,"trial_number":19},{"rt":null,"stimulus":"<div style=\"font-size:60px;\">+</div>","response":null,"screen":"fixation","trial_type":"html-keyboard-response","trial_index":119,"time_elapsed":220092,"internal_node_id":"0.0-5.0-2.0-0.19","screen_height":657,"screen_width":1280,"browser":"chrome","browser_version":"103.0.0","mobile":false,"os":"Windows 10","vsync_rate":59.99,"participant_id":"SK_1","trial_duration":454},{"rt":977,"stimulus":"stimuli/Contrast_str24.0_diff-22.5.png","response":"arrowdown","screen":"Trial","block":"Contrast","correct_response":"arrowdown","trial_type":"image-keyboard-response","trial_index":120,"time_elapsed":221070,"internal_node_id":"0.0-5.0-2.0-1.19","screen_height":657,"screen_width":1280,"browser":"chrome","browser_version":"103.0.0","mobile":false,"os":"Windows 10","vsync_rate":59.99,"participant_id":"SK_1","prestimulus_duration":471,"correct":true,"type":"Contrast","illusion_strength":24,"illusion_difference":-22.5,"block_number":2,"trial_number":20},{"rt":null,"stimulus":"<div style=\"font-size:60px;\">+</div>","response":null,"screen":"fixation","trial_type":"html-keyboard-response","trial_index":121,"time_elapsed":221426,"internal_node_id":"0.0-5.0-2.0-0.20","screen_height":657,"screen_width":1280,"browser":"chrome","browser_version":"103.0.0","mobile":false,"os":"Windows 10","vsync_rate":59.99,"participant_id":"SK_1","trial_duration":345},{"rt":919,"stimulus":"stimuli/Contrast_str8.0_diff-15.0.png","response":"arrowdown","screen":"Trial","block":"Contrast","correct_response":"arrowdown","trial_type":"image-keyboard-response","trial_index":122,"time_elapsed":222346,"internal_node_id":"0.0-5.0-2.0-1.20","screen_height":657,"screen_width":1280,"browser":"chrome","browser_version":"103.0.0","mobile":false,"os":"Windows 10","vsync_rate":59.99,"participant_id":"SK_1","prestimulus_duration":356,"correct":true,"type":"Contrast","illusion_strength":8,"illusion_difference":-15,"block_number":2,"trial_number":21},{"rt":null,"stimulus":"<div style=\"font-size:60px;\">+</div>","response":null,"screen":"fixation","trial_type":"html-keyboard-response","trial_index":123,"time_elapsed":222671,"internal_node_id":"0.0-5.0-2.0-0.21","screen_height":657,"screen_width":1280,"browser":"chrome","browser_version":"103.0.0","mobile":false,"os":"Windows 10","vsync_rate":59.99,"participant_id":"SK_1","trial_duration":312},{"rt":922,"stimulus":"stimuli/Contrast_str-40.0_diff35.0.png","response":"arrowup","screen":"Trial","block":"Contrast","correct_response":"arrowup","trial_type":"image-keyboard-response","trial_index":124,"time_elapsed":223594,"internal_node_id":"0.0-5.0-2.0-1.21","screen_height":657,"screen_width":1280,"browser":"chrome","browser_version":"103.0.0","mobile":false,"os":"Windows 10","vsync_rate":59.99,"participant_id":"SK_1","prestimulus_duration":325,"correct":true,"type":"Contrast","illusion_strength":-40,"illusion_difference":35,"block_number":2,"trial_number":22},{"rt":null,"stimulus":"<div style=\"font-size:60px;\">+</div>","response":null,"screen":"fixation","trial_type":"html-keyboard-response","trial_index":125,"time_elapsed":224446,"internal_node_id":"0.0-5.0-2.0-0.22","screen_height":657,"screen_width":1280,"browser":"chrome","browser_version":"103.0.0","mobile":false,"os":"Windows 10","vsync_rate":59.99,"participant_id":"SK_1","trial_duration":840},{"rt":2152,"stimulus":"stimuli/Contrast_str40.0_diff-35.0.png","response":"arrowdown","screen":"Trial","block":"Contrast","correct_response":"arrowdown","trial_type":"image-keyboard-response","trial_index":126,"time_elapsed":226599,"internal_node_id":"0.0-5.0-2.0-1.22","screen_height":657,"screen_width":1280,"browser":"chrome","browser_version":"103.0.0","mobile":false,"os":"Windows 10","vsync_rate":59.99,"participant_id":"SK_1","prestimulus_duration":852,"correct":true,"type":"Contrast","illusion_strength":40,"illusion_difference":-35,"block_number":2,"trial_number":23},{"rt":null,"stimulus":"<div style=\"font-size:60px;\">+</div>","response":null,"screen":"fixation","trial_type":"html-keyboard-response","trial_index":127,"time_elapsed":226955,"internal_node_id":"0.0-5.0-2.0-0.23","screen_height":657,"screen_width":1280,"browser":"chrome","browser_version":"103.0.0","mobile":false,"os":"Windows 10","vsync_rate":59.99,"participant_id":"SK_1","trial_duration":350},{"rt":748,"stimulus":"stimuli/Contrast_str40.0_diff-22.5.png","response":"arrowdown","screen":"Trial","block":"Contrast","correct_response":"arrowdown","trial_type":"image-keyboard-response","trial_index":128,"time_elapsed":227704,"internal_node_id":"0.0-5.0-2.0-1.23","screen_height":657,"screen_width":1280,"browser":"chrome","browser_version":"103.0.0","mobile":false,"os":"Windows 10","vsync_rate":59.99,"participant_id":"SK_1","prestimulus_duration":356,"correct":true,"type":"Contrast","illusion_strength":40,"illusion_difference":-22.5,"block_number":2,"trial_number":24},{"rt":null,"stimulus":"<div style=\"font-size:60px;\">+</div>","response":null,"screen":"fixation","trial_type":"html-keyboard-response","trial_index":129,"time_elapsed":228618,"internal_node_id":"0.0-5.0-2.0-0.24","screen_height":657,"screen_width":1280,"browser":"chrome","browser_version":"103.0.0","mobile":false,"os":"Windows 10","vsync_rate":59.99,"participant_id":"SK_1","trial_duration":903},{"rt":878,"stimulus":"stimuli/Contrast_str40.0_diff22.5.png","response":"arrowup","screen":"Trial","block":"Contrast","correct_response":"arrowup","trial_type":"image-keyboard-response","trial_index":130,"time_elapsed":229497,"internal_node_id":"0.0-5.0-2.0-1.24","screen_height":657,"screen_width":1280,"browser":"chrome","browser_version":"103.0.0","mobile":false,"os":"Windows 10","vsync_rate":59.99,"participant_id":"SK_1","prestimulus_duration":914,"correct":true,"type":"Contrast","illusion_strength":40,"illusion_difference":22.5,"block_number":2,"trial_number":25},{"rt":null,"stimulus":"<div style=\"font-size:60px;\">+</div>","response":null,"screen":"fixation","trial_type":"html-keyboard-response","trial_index":131,"time_elapsed":230207,"internal_node_id":"0.0-5.0-2.0-0.25","screen_height":657,"screen_width":1280,"browser":"chrome","browser_version":"103.0.0","mobile":false,"os":"Windows 10","vsync_rate":59.99,"participant_id":"SK_1","trial_duration":700},{"rt":1560,"stimulus":"stimuli/Contrast_str-40.0_diff-35.0.png","response":"arrowdown","screen":"Trial","block":"Contrast","correct_response":"arrowdown","trial_type":"image-keyboard-response","trial_index":132,"time_elapsed":231768,"internal_node_id":"0.0-5.0-2.0-1.25","screen_height":657,"screen_width":1280,"browser":"chrome","browser_version":"103.0.0","mobile":false,"os":"Windows 10","vsync_rate":59.99,"participant_id":"SK_1","prestimulus_duration":710,"correct":true,"type":"Contrast","illusion_strength":-40,"illusion_difference":-35,"block_number":2,"trial_number":26},{"rt":null,"stimulus":"<div style=\"font-size:60px;\">+</div>","response":null,"screen":"fixation","trial_type":"html-keyboard-response","trial_index":133,"time_elapsed":232339,"internal_node_id":"0.0-5.0-2.0-0.26","screen_height":657,"screen_width":1280,"browser":"chrome","browser_version":"103.0.0","mobile":false,"os":"Windows 10","vsync_rate":59.99,"participant_id":"SK_1","trial_duration":565},{"rt":1172,"stimulus":"stimuli/Contrast_str24.0_diff-35.0.png","response":"arrowdown","screen":"Trial","block":"Contrast","correct_response":"arrowdown","trial_type":"image-keyboard-response","trial_index":134,"time_elapsed":233512,"internal_node_id":"0.0-5.0-2.0-1.26","screen_height":657,"screen_width":1280,"browser":"chrome","browser_version":"103.0.0","mobile":false,"os":"Windows 10","vsync_rate":59.99,"participant_id":"SK_1","prestimulus_duration":571,"correct":true,"type":"Contrast","illusion_strength":24,"illusion_difference":-35,"block_number":2,"trial_number":27},{"rt":null,"stimulus":"<div style=\"font-size:60px;\">+</div>","response":null,"screen":"fixation","trial_type":"html-keyboard-response","trial_index":135,"time_elapsed":233788,"internal_node_id":"0.0-5.0-2.0-0.27","screen_height":657,"screen_width":1280,"browser":"chrome","browser_version":"103.0.0","mobile":false,"os":"Windows 10","vsync_rate":59.99,"participant_id":"SK_1","trial_duration":262},{"rt":815,"stimulus":"stimuli/Contrast_str-8.0_diff-15.0.png","response":"arrowdown","screen":"Trial","block":"Contrast","correct_response":"arrowdown","trial_type":"image-keyboard-response","trial_index":136,"time_elapsed":234604,"internal_node_id":"0.0-5.0-2.0-1.27","screen_height":657,"screen_width":1280,"browser":"chrome","browser_version":"103.0.0","mobile":false,"os":"Windows 10","vsync_rate":59.99,"participant_id":"SK_1","prestimulus_duration":276,"correct":true,"type":"Contrast","illusion_strength":-8,"illusion_difference":-15,"block_number":2,"trial_number":28},{"rt":null,"stimulus":"<div style=\"font-size:60px;\">+</div>","response":null,"screen":"fixation","trial_type":"html-keyboard-response","trial_index":137,"time_elapsed":234863,"internal_node_id":"0.0-5.0-2.0-0.28","screen_height":657,"screen_width":1280,"browser":"chrome","browser_version":"103.0.0","mobile":false,"os":"Windows 10","vsync_rate":59.99,"participant_id":"SK_1","trial_duration":257},{"rt":844,"stimulus":"stimuli/Contrast_str8.0_diff-35.0.png","response":"arrowdown","screen":"Trial","block":"Contrast","correct_response":"arrowdown","trial_type":"image-keyboard-response","trial_index":138,"time_elapsed":235708,"internal_node_id":"0.0-5.0-2.0-1.28","screen_height":657,"screen_width":1280,"browser":"chrome","browser_version":"103.0.0","mobile":false,"os":"Windows 10","vsync_rate":59.99,"participant_id":"SK_1","prestimulus_duration":259,"correct":true,"type":"Contrast","illusion_strength":8,"illusion_difference":-35,"block_number":2,"trial_number":29},{"rt":null,"stimulus":"<div style=\"font-size:60px;\">+</div>","response":null,"screen":"fixation","trial_type":"html-keyboard-response","trial_index":139,"time_elapsed":236578,"internal_node_id":"0.0-5.0-2.0-0.29","screen_height":657,"screen_width":1280,"browser":"chrome","browser_version":"103.0.0","mobile":false,"os":"Windows 10","vsync_rate":59.99,"participant_id":"SK_1","trial_duration":868},{"rt":826,"stimulus":"stimuli/Contrast_str24.0_diff22.5.png","response":"arrowup","screen":"Trial","block":"Contrast","correct_response":"arrowup","trial_type":"image-keyboard-response","trial_index":140,"time_elapsed":237405,"internal_node_id":"0.0-5.0-2.0-1.29","screen_height":657,"screen_width":1280,"browser":"chrome","browser_version":"103.0.0","mobile":false,"os":"Windows 10","vsync_rate":59.99,"participant_id":"SK_1","prestimulus_duration":870,"correct":true,"type":"Contrast","illusion_strength":24,"illusion_difference":22.5,"block_number":2,"trial_number":30},{"rt":null,"stimulus":"<div style=\"font-size:60px;\">+</div>","response":null,"screen":"fixation","trial_type":"html-keyboard-response","trial_index":141,"time_elapsed":237747,"internal_node_id":"0.0-5.0-2.0-0.30","screen_height":657,"screen_width":1280,"browser":"chrome","browser_version":"103.0.0","mobile":false,"os":"Windows 10","vsync_rate":59.99,"participant_id":"SK_1","trial_duration":330},{"rt":861,"stimulus":"stimuli/Contrast_str24.0_diff15.0.png","response":"arrowup","screen":"Trial","block":"Contrast","correct_response":"arrowup","trial_type":"image-keyboard-response","trial_index":142,"time_elapsed":238609,"internal_node_id":"0.0-5.0-2.0-1.30","screen_height":657,"screen_width":1280,"browser":"chrome","browser_version":"103.0.0","mobile":false,"os":"Windows 10","vsync_rate":59.99,"participant_id":"SK_1","prestimulus_duration":342,"correct":true,"type":"Contrast","illusion_strength":24,"illusion_difference":15,"block_number":2,"trial_number":31},{"rt":null,"stimulus":"<div style=\"font-size:60px;\">+</div>","response":null,"screen":"fixation","trial_type":"html-keyboard-response","trial_index":143,"time_elapsed":239456,"internal_node_id":"0.0-5.0-2.0-0.31","screen_height":657,"screen_width":1280,"browser":"chrome","browser_version":"103.0.0","mobile":false,"os":"Windows 10","vsync_rate":59.99,"participant_id":"SK_1","trial_duration":845},{"rt":972,"stimulus":"stimuli/Contrast_str8.0_diff35.0.png","response":"arrowup","screen":"Trial","block":"Contrast","correct_response":"arrowup","trial_type":"image-keyboard-response","trial_index":144,"time_elapsed":240429,"internal_node_id":"0.0-5.0-2.0-1.31","screen_height":657,"screen_width":1280,"browser":"chrome","browser_version":"103.0.0","mobile":false,"os":"Windows 10","vsync_rate":59.99,"participant_id":"SK_1","prestimulus_duration":847,"correct":true,"type":"Contrast","illusion_strength":8,"illusion_difference":35,"block_number":2,"trial_number":32},{"rt":null,"stimulus":"<div style=\"font-size:60px;\">+</div>","response":null,"screen":"fixation","trial_type":"html-keyboard-response","trial_index":145,"time_elapsed":240888,"internal_node_id":"0.0-5.0-2.0-0.32","screen_height":657,"screen_width":1280,"browser":"chrome","browser_version":"103.0.0","mobile":false,"os":"Windows 10","vsync_rate":59.99,"participant_id":"SK_1","trial_duration":457},{"rt":1925,"stimulus":"stimuli/Contrast_str-40.0_diff15.0.png","response":"arrowup","screen":"Trial","block":"Contrast","correct_response":"arrowup","trial_type":"image-keyboard-response","trial_index":146,"time_elapsed":242814,"internal_node_id":"0.0-5.0-2.0-1.32","screen_height":657,"screen_width":1280,"browser":"chrome","browser_version":"103.0.0","mobile":false,"os":"Windows 10","vsync_rate":59.99,"participant_id":"SK_1","prestimulus_duration":459,"correct":true,"type":"Contrast","illusion_strength":-40,"illusion_difference":15,"block_number":2,"trial_number":33},{"rt":null,"stimulus":"<div style=\"font-size:60px;\">+</div>","response":null,"screen":"fixation","trial_type":"html-keyboard-response","trial_index":147,"time_elapsed":243386,"internal_node_id":"0.0-5.0-2.0-0.33","screen_height":657,"screen_width":1280,"browser":"chrome","browser_version":"103.0.0","mobile":false,"os":"Windows 10","vsync_rate":59.99,"participant_id":"SK_1","trial_duration":566},{"rt":1193,"stimulus":"stimuli/Contrast_str-8.0_diff-35.0.png","response":"arrowdown","screen":"Trial","block":"Contrast","correct_response":"arrowdown","trial_type":"image-keyboard-response","trial_index":148,"time_elapsed":244580,"internal_node_id":"0.0-5.0-2.0-1.33","screen_height":657,"screen_width":1280,"browser":"chrome","browser_version":"103.0.0","mobile":false,"os":"Windows 10","vsync_rate":59.99,"participant_id":"SK_1","prestimulus_duration":572,"correct":true,"type":"Contrast","illusion_strength":-8,"illusion_difference":-35,"block_number":2,"trial_number":34},{"rt":null,"stimulus":"<div style=\"font-size:60px;\">+</div>","response":null,"screen":"fixation","trial_type":"html-keyboard-response","trial_index":149,"time_elapsed":245333,"internal_node_id":"0.0-5.0-2.0-0.34","screen_height":657,"screen_width":1280,"browser":"chrome","browser_version":"103.0.0","mobile":false,"os":"Windows 10","vsync_rate":59.99,"participant_id":"SK_1","trial_duration":747},{"rt":681,"stimulus":"stimuli/Contrast_str-8.0_diff35.0.png","response":"arrowup","screen":"Trial","block":"Contrast","correct_response":"arrowup","trial_type":"image-keyboard-response","trial_index":150,"time_elapsed":246015,"internal_node_id":"0.0-5.0-2.0-1.34","screen_height":657,"screen_width":1280,"browser":"chrome","browser_version":"103.0.0","mobile":false,"os":"Windows 10","vsync_rate":59.99,"participant_id":"SK_1","prestimulus_duration":753,"correct":true,"type":"Contrast","illusion_strength":-8,"illusion_difference":35,"block_number":2,"trial_number":35},{"rt":null,"stimulus":"<div style=\"font-size:60px;\">+</div>","response":null,"screen":"fixation","trial_type":"html-keyboard-response","trial_index":151,"time_elapsed":246438,"internal_node_id":"0.0-5.0-2.0-0.35","screen_height":657,"screen_width":1280,"browser":"chrome","browser_version":"103.0.0","mobile":false,"os":"Windows 10","vsync_rate":59.99,"participant_id":"SK_1","trial_duration":415},{"rt":700,"stimulus":"stimuli/Contrast_str-8.0_diff-22.5.png","response":"arrowdown","screen":"Trial","block":"Contrast","correct_response":"arrowdown","trial_type":"image-keyboard-response","trial_index":152,"time_elapsed":247139,"internal_node_id":"0.0-5.0-2.0-1.35","screen_height":657,"screen_width":1280,"browser":"chrome","browser_version":"103.0.0","mobile":false,"os":"Windows 10","vsync_rate":59.99,"participant_id":"SK_1","prestimulus_duration":423,"correct":true,"type":"Contrast","illusion_strength":-8,"illusion_difference":-22.5,"block_number":2,"trial_number":36},{"rt":1359,"stimulus":"<p>Your score for this illusion is <p style=\"color: black; font-size: 48px; font-weight: bold;\">3817</p><hr><hr><p>Can you do better in the next illusion?</p>","response":0,"screen":"block_results","trial_type":"html-button-response","trial_index":153,"time_elapsed":248502,"internal_node_id":"0.0-5.0-3.0","screen_height":657,"screen_width":1280,"browser":"chrome","browser_version":"103.0.0","mobile":false,"os":"Windows 10","vsync_rate":59.99,"participant_id":"SK_1"},{"success":true,"timeout":false,"failed_images":[],"failed_audio":[],"failed_video":[],"trial_type":"preload","trial_index":154,"time_elapsed":248504,"internal_node_id":"0.0-6.0-0.0","screen_height":657,"screen_width":1280,"browser":"chrome","browser_version":"103.0.0","mobile":false,"os":"Windows 10","vsync_rate":59.99,"participant_id":"SK_1"},{"rt":1314,"stimulus":"<p><b>Part 3</b></p><p>In this part, two vertical grey rectangles will appear side by side.</p><p>Your task is to tell <b>which rectangle is of a lighter color</b>, as fast as you can, and without making errors.</p><p>Don't get distracted by the background color!</p><p>Press <b>the LEFT or the RIGHT arrow</b> to indicate which <b>side has the lighter rectangle.</b></p><div style='float: center'><img src='utils/stimuli_demo/White_Demo.png' height='300'></img><p><img src='utils/answer/answer_leftright_keyboard.PNG' height='150'></img></p><p class='small'>In this example, the correct answer is the <b>LEFT arrow</b>.</p></div><p>Are you ready? <b>Press ENTER to start</b></p>","response":"enter","trial_type":"html-keyboard-response","trial_index":155,"time_elapsed":249820,"internal_node_id":"0.0-6.0-1.0","screen_height":657,"screen_width":1280,"browser":"chrome","browser_version":"103.0.0","mobile":false,"os":"Windows 10","vsync_rate":59.99,"participant_id":"SK_1"},{"rt":null,"stimulus":"<div style=\"font-size:60px;\">+</div>","response":null,"screen":"fixation","trial_type":"html-keyboard-response","trial_index":156,"time_elapsed":251232,"internal_node_id":"0.0-6.0-2.0-0.0","screen_height":657,"screen_width":1280,"browser":"chrome","browser_version":"103.0.0","mobile":false,"os":"Windows 10","vsync_rate":59.99,"participant_id":"SK_1","trial_duration":892},{"rt":2996,"stimulus":"stimuli/White_str-8.0_diff22.5.png","response":"arrowleft","screen":"Trial","block":"White","correct_response":"arrowleft","trial_type":"image-keyboard-response","trial_index":157,"time_elapsed":254230,"internal_node_id":"0.0-6.0-2.0-1.0","screen_height":657,"screen_width":1280,"browser":"chrome","browser_version":"103.0.0","mobile":false,"os":"Windows 10","vsync_rate":59.99,"participant_id":"SK_1","prestimulus_duration":1412,"correct":true,"type":"White","illusion_strength":-8,"illusion_difference":22.5,"block_number":3,"trial_number":1},{"rt":null,"stimulus":"<div style=\"font-size:60px;\">+</div>","response":null,"screen":"fixation","trial_type":"html-keyboard-response","trial_index":158,"time_elapsed":254891,"internal_node_id":"0.0-6.0-2.0-0.1","screen_height":657,"screen_width":1280,"browser":"chrome","browser_version":"103.0.0","mobile":false,"os":"Windows 10","vsync_rate":59.99,"participant_id":"SK_1","trial_duration":653},{"rt":1556,"stimulus":"stimuli/White_str-24.0_diff-15.0.png","response":"arrowleft","screen":"Trial","block":"White","correct_response":"arrowright","trial_type":"image-keyboard-response","trial_index":159,"time_elapsed":256447,"internal_node_id":"0.0-6.0-2.0-1.1","screen_height":657,"screen_width":1280,"browser":"chrome","browser_version":"103.0.0","mobile":false,"os":"Windows 10","vsync_rate":59.99,"participant_id":"SK_1","prestimulus_duration":661,"correct":false,"type":"White","illusion_strength":-24,"illusion_difference":-15,"block_number":3,"trial_number":2},{"rt":null,"stimulus":"<div style=\"font-size:60px;\">+</div>","response":null,"screen":"fixation","trial_type":"html-keyboard-response","trial_index":160,"time_elapsed":257228,"internal_node_id":"0.0-6.0-2.0-0.2","screen_height":657,"screen_width":1280,"browser":"chrome","browser_version":"103.0.0","mobile":false,"os":"Windows 10","vsync_rate":59.99,"participant_id":"SK_1","trial_duration":779},{"rt":882,"stimulus":"stimuli/White_str40.0_diff35.0.png","response":"arrowleft","screen":"Trial","block":"White","correct_response":"arrowleft","trial_type":"image-keyboard-response","trial_index":161,"time_elapsed":258111,"internal_node_id":"0.0-6.0-2.0-1.2","screen_height":657,"screen_width":1280,"browser":"chrome","browser_version":"103.0.0","mobile":false,"os":"Windows 10","vsync_rate":59.99,"participant_id":"SK_1","prestimulus_duration":781,"correct":true,"type":"White","illusion_strength":40,"illusion_difference":35,"block_number":3,"trial_number":3},{"rt":null,"stimulus":"<div style=\"font-size:60px;\">+</div>","response":null,"screen":"fixation","trial_type":"html-keyboard-response","trial_index":162,"time_elapsed":258539,"internal_node_id":"0.0-6.0-2.0-0.3","screen_height":657,"screen_width":1280,"browser":"chrome","browser_version":"103.0.0","mobile":false,"os":"Windows 10","vsync_rate":59.99,"participant_id":"SK_1","trial_duration":420},{"rt":673,"stimulus":"stimuli/White_str24.0_diff22.5.png","response":"arrowleft","screen":"Trial","block":"White","correct_response":"arrowleft","trial_type":"image-keyboard-response","trial_index":163,"time_elapsed":259213,"internal_node_id":"0.0-6.0-2.0-1.3","screen_height":657,"screen_width":1280,"browser":"chrome","browser_version":"103.0.0","mobile":false,"os":"Windows 10","vsync_rate":59.99,"participant_id":"SK_1","prestimulus_duration":428,"correct":true,"type":"White","illusion_strength":24,"illusion_difference":22.5,"block_number":3,"trial_number":4},{"rt":null,"stimulus":"<div style=\"font-size:60px;\">+</div>","response":null,"screen":"fixation","trial_type":"html-keyboard-response","trial_index":164,"time_elapsed":259757,"internal_node_id":"0.0-6.0-2.0-0.4","screen_height":657,"screen_width":1280,"browser":"chrome","browser_version":"103.0.0","mobile":false,"os":"Windows 10","vsync_rate":59.99,"participant_id":"SK_1","trial_duration":537},{"rt":756,"stimulus":"stimuli/White_str40.0_diff-35.0.png","response":"arrowright","screen":"Trial","block":"White","correct_response":"arrowright","trial_type":"image-keyboard-response","trial_index":165,"time_elapsed":260514,"internal_node_id":"0.0-6.0-2.0-1.4","screen_height":657,"screen_width":1280,"browser":"chrome","browser_version":"103.0.0","mobile":false,"os":"Windows 10","vsync_rate":59.99,"participant_id":"SK_1","prestimulus_duration":544,"correct":true,"type":"White","illusion_strength":40,"illusion_difference":-35,"block_number":3,"trial_number":5},{"rt":null,"stimulus":"<div style=\"font-size:60px;\">+</div>","response":null,"screen":"fixation","trial_type":"html-keyboard-response","trial_index":166,"time_elapsed":261222,"internal_node_id":"0.0-6.0-2.0-0.5","screen_height":657,"screen_width":1280,"browser":"chrome","browser_version":"103.0.0","mobile":false,"os":"Windows 10","vsync_rate":59.99,"participant_id":"SK_1","trial_duration":700},{"rt":5137,"stimulus":"stimuli/White_str-24.0_diff-22.5.png","response":"arrowright","screen":"Trial","block":"White","correct_response":"arrowright","trial_type":"image-keyboard-response","trial_index":167,"time_elapsed":266360,"internal_node_id":"0.0-6.0-2.0-1.5","screen_height":657,"screen_width":1280,"browser":"chrome","browser_version":"103.0.0","mobile":false,"os":"Windows 10","vsync_rate":59.99,"participant_id":"SK_1","prestimulus_duration":708,"correct":true,"type":"White","illusion_strength":-24,"illusion_difference":-22.5,"block_number":3,"trial_number":6},{"rt":null,"stimulus":"<div style=\"font-size:60px;\">+</div>","response":null,"screen":"fixation","trial_type":"html-keyboard-response","trial_index":168,"time_elapsed":267302,"internal_node_id":"0.0-6.0-2.0-0.6","screen_height":657,"screen_width":1280,"browser":"chrome","browser_version":"103.0.0","mobile":false,"os":"Windows 10","vsync_rate":59.99,"participant_id":"SK_1","trial_duration":926},{"rt":903,"stimulus":"stimuli/White_str8.0_diff-35.0.png","response":"arrowright","screen":"Trial","block":"White","correct_response":"arrowright","trial_type":"image-keyboard-response","trial_index":169,"time_elapsed":268205,"internal_node_id":"0.0-6.0-2.0-1.6","screen_height":657,"screen_width":1280,"browser":"chrome","browser_version":"103.0.0","mobile":false,"os":"Windows 10","vsync_rate":59.99,"participant_id":"SK_1","prestimulus_duration":942,"correct":true,"type":"White","illusion_strength":8,"illusion_difference":-35,"block_number":3,"trial_number":7},{"rt":null,"stimulus":"<div style=\"font-size:60px;\">+</div>","response":null,"screen":"fixation","trial_type":"html-keyboard-response","trial_index":170,"time_elapsed":269143,"internal_node_id":"0.0-6.0-2.0-0.7","screen_height":657,"screen_width":1280,"browser":"chrome","browser_version":"103.0.0","mobile":false,"os":"Windows 10","vsync_rate":59.99,"participant_id":"SK_1","trial_duration":922},{"rt":804,"stimulus":"stimuli/White_str24.0_diff-35.0.png","response":"arrowright","screen":"Trial","block":"White","correct_response":"arrowright","trial_type":"image-keyboard-response","trial_index":171,"time_elapsed":269947,"internal_node_id":"0.0-6.0-2.0-1.7","screen_height":657,"screen_width":1280,"browser":"chrome","browser_version":"103.0.0","mobile":false,"os":"Windows 10","vsync_rate":59.99,"participant_id":"SK_1","prestimulus_duration":938,"correct":true,"type":"White","illusion_strength":24,"illusion_difference":-35,"block_number":3,"trial_number":8},{"rt":null,"stimulus":"<div style=\"font-size:60px;\">+</div>","response":null,"screen":"fixation","trial_type":"html-keyboard-response","trial_index":172,"time_elapsed":270871,"internal_node_id":"0.0-6.0-2.0-0.8","screen_height":657,"screen_width":1280,"browser":"chrome","browser_version":"103.0.0","mobile":false,"os":"Windows 10","vsync_rate":59.99,"participant_id":"SK_1","trial_duration":917},{"rt":1721,"stimulus":"stimuli/White_str-24.0_diff15.0.png","response":"arrowright","screen":"Trial","block":"White","correct_response":"arrowleft","trial_type":"image-keyboard-response","trial_index":173,"time_elapsed":272593,"internal_node_id":"0.0-6.0-2.0-1.8","screen_height":657,"screen_width":1280,"browser":"chrome","browser_version":"103.0.0","mobile":false,"os":"Windows 10","vsync_rate":59.99,"participant_id":"SK_1","prestimulus_duration":924,"correct":false,"type":"White","illusion_strength":-24,"illusion_difference":15,"block_number":3,"trial_number":9},{"rt":null,"stimulus":"<div style=\"font-size:60px;\">+</div>","response":null,"screen":"fixation","trial_type":"html-keyboard-response","trial_index":174,"time_elapsed":272959,"internal_node_id":"0.0-6.0-2.0-0.9","screen_height":657,"screen_width":1280,"browser":"chrome","browser_version":"103.0.0","mobile":false,"os":"Windows 10","vsync_rate":59.99,"participant_id":"SK_1","trial_duration":365},{"rt":738,"stimulus":"stimuli/White_str40.0_diff22.5.png","response":"arrowleft","screen":"Trial","block":"White","correct_response":"arrowleft","trial_type":"image-keyboard-response","trial_index":175,"time_elapsed":273698,"internal_node_id":"0.0-6.0-2.0-1.9","screen_height":657,"screen_width":1280,"browser":"chrome","browser_version":"103.0.0","mobile":false,"os":"Windows 10","vsync_rate":59.99,"participant_id":"SK_1","prestimulus_duration":366,"correct":true,"type":"White","illusion_strength":40,"illusion_difference":22.5,"block_number":3,"trial_number":10},{"rt":null,"stimulus":"<div style=\"font-size:60px;\">+</div>","response":null,"screen":"fixation","trial_type":"html-keyboard-response","trial_index":176,"time_elapsed":274533,"internal_node_id":"0.0-6.0-2.0-0.10","screen_height":657,"screen_width":1280,"browser":"chrome","browser_version":"103.0.0","mobile":false,"os":"Windows 10","vsync_rate":59.99,"participant_id":"SK_1","trial_duration":827},{"rt":819,"stimulus":"stimuli/White_str40.0_diff-22.5.png","response":"arrowright","screen":"Trial","block":"White","correct_response":"arrowright","trial_type":"image-keyboard-response","trial_index":177,"time_elapsed":275353,"internal_node_id":"0.0-6.0-2.0-1.10","screen_height":657,"screen_width":1280,"browser":"chrome","browser_version":"103.0.0","mobile":false,"os":"Windows 10","vsync_rate":59.99,"participant_id":"SK_1","prestimulus_duration":835,"correct":true,"type":"White","illusion_strength":40,"illusion_difference":-22.5,"block_number":3,"trial_number":11},{"rt":null,"stimulus":"<div style=\"font-size:60px;\">+</div>","response":null,"screen":"fixation","trial_type":"html-keyboard-response","trial_index":178,"time_elapsed":276076,"internal_node_id":"0.0-6.0-2.0-0.11","screen_height":657,"screen_width":1280,"browser":"chrome","browser_version":"103.0.0","mobile":false,"os":"Windows 10","vsync_rate":59.99,"participant_id":"SK_1","trial_duration":722},{"rt":873,"stimulus":"stimuli/White_str-8.0_diff35.0.png","response":"arrowleft","screen":"Trial","block":"White","correct_response":"arrowleft","trial_type":"image-keyboard-response","trial_index":179,"time_elapsed":276951,"internal_node_id":"0.0-6.0-2.0-1.11","screen_height":657,"screen_width":1280,"browser":"chrome","browser_version":"103.0.0","mobile":false,"os":"Windows 10","vsync_rate":59.99,"participant_id":"SK_1","prestimulus_duration":723,"correct":true,"type":"White","illusion_strength":-8,"illusion_difference":35,"block_number":3,"trial_number":12},{"rt":null,"stimulus":"<div style=\"font-size:60px;\">+</div>","response":null,"screen":"fixation","trial_type":"html-keyboard-response","trial_index":180,"time_elapsed":277212,"internal_node_id":"0.0-6.0-2.0-0.12","screen_height":657,"screen_width":1280,"browser":"chrome","browser_version":"103.0.0","mobile":false,"os":"Windows 10","vsync_rate":59.99,"participant_id":"SK_1","trial_duration":254},{"rt":784,"stimulus":"stimuli/White_str8.0_diff-15.0.png","response":"arrowright","screen":"Trial","block":"White","correct_response":"arrowright","trial_type":"image-keyboard-response","trial_index":181,"time_elapsed":277997,"internal_node_id":"0.0-6.0-2.0-1.12","screen_height":657,"screen_width":1280,"browser":"chrome","browser_version":"103.0.0","mobile":false,"os":"Windows 10","vsync_rate":59.99,"participant_id":"SK_1","prestimulus_duration":261,"correct":true,"type":"White","illusion_strength":8,"illusion_difference":-15,"block_number":3,"trial_number":13},{"rt":null,"stimulus":"<div style=\"font-size:60px;\">+</div>","response":null,"screen":"fixation","trial_type":"html-keyboard-response","trial_index":182,"time_elapsed":278379,"internal_node_id":"0.0-6.0-2.0-0.13","screen_height":657,"screen_width":1280,"browser":"chrome","browser_version":"103.0.0","mobile":false,"os":"Windows 10","vsync_rate":59.99,"participant_id":"SK_1","trial_duration":370},{"rt":1357,"stimulus":"stimuli/White_str-40.0_diff15.0.png","response":"arrowleft","screen":"Trial","block":"White","correct_response":"arrowleft","trial_type":"image-keyboard-response","trial_index":183,"time_elapsed":279737,"internal_node_id":"0.0-6.0-2.0-1.13","screen_height":657,"screen_width":1280,"browser":"chrome","browser_version":"103.0.0","mobile":false,"os":"Windows 10","vsync_rate":59.99,"participant_id":"SK_1","prestimulus_duration":382,"correct":true,"type":"White","illusion_strength":-40,"illusion_difference":15,"block_number":3,"trial_number":14},{"rt":null,"stimulus":"<div style=\"font-size:60px;\">+</div>","response":null,"screen":"fixation","trial_type":"html-keyboard-response","trial_index":184,"time_elapsed":280173,"internal_node_id":"0.0-6.0-2.0-0.14","screen_height":657,"screen_width":1280,"browser":"chrome","browser_version":"103.0.0","mobile":false,"os":"Windows 10","vsync_rate":59.99,"participant_id":"SK_1","trial_duration":431},{"rt":2059,"stimulus":"stimuli/White_str-40.0_diff35.0.png","response":"arrowleft","screen":"Trial","block":"White","correct_response":"arrowleft","trial_type":"image-keyboard-response","trial_index":185,"time_elapsed":282232,"internal_node_id":"0.0-6.0-2.0-1.14","screen_height":657,"screen_width":1280,"browser":"chrome","browser_version":"103.0.0","mobile":false,"os":"Windows 10","vsync_rate":59.99,"participant_id":"SK_1","prestimulus_duration":436,"correct":true,"type":"White","illusion_strength":-40,"illusion_difference":35,"block_number":3,"trial_number":15},{"rt":null,"stimulus":"<div style=\"font-size:60px;\">+</div>","response":null,"screen":"fixation","trial_type":"html-keyboard-response","trial_index":186,"time_elapsed":282512,"internal_node_id":"0.0-6.0-2.0-0.15","screen_height":657,"screen_width":1280,"browser":"chrome","browser_version":"103.0.0","mobile":false,"os":"Windows 10","vsync_rate":59.99,"participant_id":"SK_1","trial_duration":276},{"rt":1018,"stimulus":"stimuli/White_str-24.0_diff-35.0.png","response":"arrowright","screen":"Trial","block":"White","correct_response":"arrowright","trial_type":"image-keyboard-response","trial_index":187,"time_elapsed":283531,"internal_node_id":"0.0-6.0-2.0-1.15","screen_height":657,"screen_width":1280,"browser":"chrome","browser_version":"103.0.0","mobile":false,"os":"Windows 10","vsync_rate":59.99,"participant_id":"SK_1","prestimulus_duration":280,"correct":true,"type":"White","illusion_strength":-24,"illusion_difference":-35,"block_number":3,"trial_number":16},{"rt":null,"stimulus":"<div style=\"font-size:60px;\">+</div>","response":null,"screen":"fixation","trial_type":"html-keyboard-response","trial_index":188,"time_elapsed":284200,"internal_node_id":"0.0-6.0-2.0-0.16","screen_height":657,"screen_width":1280,"browser":"chrome","browser_version":"103.0.0","mobile":false,"os":"Windows 10","vsync_rate":59.99,"participant_id":"SK_1","trial_duration":656},{"rt":2171,"stimulus":"stimuli/White_str-40.0_diff-15.0.png","response":"arrowleft","screen":"Trial","block":"White","correct_response":"arrowright","trial_type":"image-keyboard-response","trial_index":189,"time_elapsed":286371,"internal_node_id":"0.0-6.0-2.0-1.16","screen_height":657,"screen_width":1280,"browser":"chrome","browser_version":"103.0.0","mobile":false,"os":"Windows 10","vsync_rate":59.99,"participant_id":"SK_1","prestimulus_duration":669,"correct":false,"type":"White","illusion_strength":-40,"illusion_difference":-15,"block_number":3,"trial_number":17},{"rt":null,"stimulus":"<div style=\"font-size:60px;\">+</div>","response":null,"screen":"fixation","trial_type":"html-keyboard-response","trial_index":190,"time_elapsed":286762,"internal_node_id":"0.0-6.0-2.0-0.17","screen_height":657,"screen_width":1280,"browser":"chrome","browser_version":"103.0.0","mobile":false,"os":"Windows 10","vsync_rate":59.99,"participant_id":"SK_1","trial_duration":389},{"rt":754,"stimulus":"stimuli/White_str24.0_diff-15.0.png","response":"arrowright","screen":"Trial","block":"White","correct_response":"arrowright","trial_type":"image-keyboard-response","trial_index":191,"time_elapsed":287517,"internal_node_id":"0.0-6.0-2.0-1.17","screen_height":657,"screen_width":1280,"browser":"chrome","browser_version":"103.0.0","mobile":false,"os":"Windows 10","vsync_rate":59.99,"participant_id":"SK_1","prestimulus_duration":391,"correct":true,"type":"White","illusion_strength":24,"illusion_difference":-15,"block_number":3,"trial_number":18},{"rt":null,"stimulus":"<div style=\"font-size:60px;\">+</div>","response":null,"screen":"fixation","trial_type":"html-keyboard-response","trial_index":192,"time_elapsed":288085,"internal_node_id":"0.0-6.0-2.0-0.18","screen_height":657,"screen_width":1280,"browser":"chrome","browser_version":"103.0.0","mobile":false,"os":"Windows 10","vsync_rate":59.99,"participant_id":"SK_1","trial_duration":564},{"rt":861,"stimulus":"stimuli/White_str40.0_diff-15.0.png","response":"arrowright","screen":"Trial","block":"White","correct_response":"arrowright","trial_type":"image-keyboard-response","trial_index":193,"time_elapsed":288947,"internal_node_id":"0.0-6.0-2.0-1.18","screen_height":657,"screen_width":1280,"browser":"chrome","browser_version":"103.0.0","mobile":false,"os":"Windows 10","vsync_rate":59.99,"participant_id":"SK_1","prestimulus_duration":568,"correct":true,"type":"White","illusion_strength":40,"illusion_difference":-15,"block_number":3,"trial_number":19},{"rt":null,"stimulus":"<div style=\"font-size:60px;\">+</div>","response":null,"screen":"fixation","trial_type":"html-keyboard-response","trial_index":194,"time_elapsed":289286,"internal_node_id":"0.0-6.0-2.0-0.19","screen_height":657,"screen_width":1280,"browser":"chrome","browser_version":"103.0.0","mobile":false,"os":"Windows 10","vsync_rate":59.99,"participant_id":"SK_1","trial_duration":326},{"rt":852,"stimulus":"stimuli/White_str-24.0_diff35.0.png","response":"arrowleft","screen":"Trial","block":"White","correct_response":"arrowleft","trial_type":"image-keyboard-response","trial_index":195,"time_elapsed":290138,"internal_node_id":"0.0-6.0-2.0-1.19","screen_height":657,"screen_width":1280,"browser":"chrome","browser_version":"103.0.0","mobile":false,"os":"Windows 10","vsync_rate":59.99,"participant_id":"SK_1","prestimulus_duration":339,"correct":true,"type":"White","illusion_strength":-24,"illusion_difference":35,"block_number":3,"trial_number":20},{"rt":null,"stimulus":"<div style=\"font-size:60px;\">+</div>","response":null,"screen":"fixation","trial_type":"html-keyboard-response","trial_index":196,"time_elapsed":290925,"internal_node_id":"0.0-6.0-2.0-0.20","screen_height":657,"screen_width":1280,"browser":"chrome","browser_version":"103.0.0","mobile":false,"os":"Windows 10","vsync_rate":59.99,"participant_id":"SK_1","trial_duration":776},{"rt":905,"stimulus":"stimuli/White_str8.0_diff35.0.png","response":"arrowleft","screen":"Trial","block":"White","correct_response":"arrowleft","trial_type":"image-keyboard-response","trial_index":197,"time_elapsed":291831,"internal_node_id":"0.0-6.0-2.0-1.20","screen_height":657,"screen_width":1280,"browser":"chrome","browser_version":"103.0.0","mobile":false,"os":"Windows 10","vsync_rate":59.99,"participant_id":"SK_1","prestimulus_duration":787,"correct":true,"type":"White","illusion_strength":8,"illusion_difference":35,"block_number":3,"trial_number":21},{"rt":null,"stimulus":"<div style=\"font-size:60px;\">+</div>","response":null,"screen":"fixation","trial_type":"html-keyboard-response","trial_index":198,"time_elapsed":292767,"internal_node_id":"0.0-6.0-2.0-0.21","screen_height":657,"screen_width":1280,"browser":"chrome","browser_version":"103.0.0","mobile":false,"os":"Windows 10","vsync_rate":59.99,"participant_id":"SK_1","trial_duration":923},{"rt":1888,"stimulus":"stimuli/White_str-8.0_diff15.0.png","response":"arrowleft","screen":"Trial","block":"White","correct_response":"arrowleft","trial_type":"image-keyboard-response","trial_index":199,"time_elapsed":294656,"internal_node_id":"0.0-6.0-2.0-1.21","screen_height":657,"screen_width":1280,"browser":"chrome","browser_version":"103.0.0","mobile":false,"os":"Windows 10","vsync_rate":59.99,"participant_id":"SK_1","prestimulus_duration":936,"correct":true,"type":"White","illusion_strength":-8,"illusion_difference":15,"block_number":3,"trial_number":22},{"rt":null,"stimulus":"<div style=\"font-size:60px;\">+</div>","response":null,"screen":"fixation","trial_type":"html-keyboard-response","trial_index":200,"time_elapsed":295288,"internal_node_id":"0.0-6.0-2.0-0.22","screen_height":657,"screen_width":1280,"browser":"chrome","browser_version":"103.0.0","mobile":false,"os":"Windows 10","vsync_rate":59.99,"participant_id":"SK_1","trial_duration":620},{"rt":706,"stimulus":"stimuli/White_str8.0_diff15.0.png","response":"arrowleft","screen":"Trial","block":"White","correct_response":"arrowleft","trial_type":"image-keyboard-response","trial_index":201,"time_elapsed":295996,"internal_node_id":"0.0-6.0-2.0-1.22","screen_height":657,"screen_width":1280,"browser":"chrome","browser_version":"103.0.0","mobile":false,"os":"Windows 10","vsync_rate":59.99,"participant_id":"SK_1","prestimulus_duration":632,"correct":true,"type":"White","illusion_strength":8,"illusion_difference":15,"block_number":3,"trial_number":23},{"rt":null,"stimulus":"<div style=\"font-size:60px;\">+</div>","response":null,"screen":"fixation","trial_type":"html-keyboard-response","trial_index":202,"time_elapsed":296990,"internal_node_id":"0.0-6.0-2.0-0.23","screen_height":657,"screen_width":1280,"browser":"chrome","browser_version":"103.0.0","mobile":false,"os":"Window